#
# Results on Tue, 03 Oct 2023 07:17:49 GMT
# USER AGENT: Mozilla/5.0 (Macintosh; Intel Mac OS X 10_15_7) AppleWebKit/605.1.15 (KHTML, like Gecko) Version/16.6 Safari/605.1.15
# Design number was non-random = 2
#
# Columns below this comment are as follows:
# 1. Results reception time.
# 2. MD5 hash of participant's IP address.
# 3. Controller name.
# 4. Order number of item.
# 5. Inner element number.
# 6. Label.
# 7. Latin Square Group.
# 8. PennElementType.
# 9. PennElementName.
# 10. Parameter.
# 11. Value.
# 12. EventTime.
# 13. code.
# 14. linguist.
# 15. gender.
# 16. age.
# 17. Comments.
1696317469,35d05d7fad1466d30794182759bbe855,PennController,1,0,ethics,NULL,PennController,0,_Trial_,Start,1696317353040,1KjhDwOcBb68qjcVT7bF7g,undefined,undefined,undefined,NULL
1696317469,35d05d7fad1466d30794182759bbe855,PennController,1,0,ethics,NULL,PennController,0,_Header_,Start,1696317353040,1KjhDwOcBb68qjcVT7bF7g,undefined,undefined,undefined,NULL
1696317469,35d05d7fad1466d30794182759bbe855,PennController,1,0,ethics,NULL,PennController,0,_Header_,End,1696317353041,1KjhDwOcBb68qjcVT7bF7g,undefined,undefined,undefined,NULL
1696317469,35d05d7fad1466d30794182759bbe855,PennController,1,0,ethics,NULL,PennController,0,_Trial_,End,1696317355636,1KjhDwOcBb68qjcVT7bF7g,undefined,undefined,undefined,NULL
1696317469,35d05d7fad1466d30794182759bbe855,PennController,3,0,participants,NULL,PennController,1,_Trial_,Start,1696317355639,1KjhDwOcBb68qjcVT7bF7g,Да,женский,20,NULL
1696317469,35d05d7fad1466d30794182759bbe855,PennController,3,0,participants,NULL,PennController,1,_Header_,Start,1696317355639,1KjhDwOcBb68qjcVT7bF7g,Да,женский,20,NULL
1696317469,35d05d7fad1466d30794182759bbe855,PennController,3,0,participants,NULL,PennController,1,_Header_,End,1696317355640,1KjhDwOcBb68qjcVT7bF7g,Да,женский,20,NULL
1696317469,35d05d7fad1466d30794182759bbe855,PennController,3,0,participants,NULL,TextInput,input_age,First,,1696317357127,1KjhDwOcBb68qjcVT7bF7g,Да,женский,20,2
1696317469,35d05d7fad1466d30794182759bbe855,PennController,3,0,participants,NULL,TextInput,input_age,EnterReturn,20,1696317358148,1KjhDwOcBb68qjcVT7bF7g,Да,женский,20,NULL
1696317469,35d05d7fad1466d30794182759bbe855,PennController,3,0,participants,NULL,Scale,input_gender,Choice,женский,1696317359788,1KjhDwOcBb68qjcVT7bF7g,Да,женский,20,NULL
1696317469,35d05d7fad1466d30794182759bbe855,PennController,3,0,participants,NULL,Scale,input_linguist,Choice,Да,1696317360608,1KjhDwOcBb68qjcVT7bF7g,Да,женский,20,NULL
1696317469,35d05d7fad1466d30794182759bbe855,PennController,3,0,participants,NULL,TextInput,input_age,Final,20,1696317361276,1KjhDwOcBb68qjcVT7bF7g,Да,женский,20,NULL
1696317469,35d05d7fad1466d30794182759bbe855,PennController,3,0,participants,NULL,PennController,1,_Trial_,End,1696317361277,1KjhDwOcBb68qjcVT7bF7g,Да,женский,20,NULL
1696317469,35d05d7fad1466d30794182759bbe855,PennController,4,0,instructions,NULL,PennController,2,_Trial_,Start,1696317361279,1KjhDwOcBb68qjcVT7bF7g,Да,женский,20,NULL
1696317469,35d05d7fad1466d30794182759bbe855,PennController,4,0,instructions,NULL,PennController,2,_Header_,Start,1696317361279,1KjhDwOcBb68qjcVT7bF7g,Да,женский,20,NULL
1696317469,35d05d7fad1466d30794182759bbe855,PennController,4,0,instructions,NULL,PennController,2,_Header_,End,1696317361279,1KjhDwOcBb68qjcVT7bF7g,Да,женский,20,NULL
1696317469,35d05d7fad1466d30794182759bbe855,PennController,4,0,instructions,NULL,PennController,2,_Trial_,End,1696317362475,1KjhDwOcBb68qjcVT7bF7g,Да,женский,20,NULL
1696317469,35d05d7fad1466d30794182759bbe855,PennController,5,0,exercise,NULL,PennController,5,_Trial_,Start,1696317362477,1KjhDwOcBb68qjcVT7bF7g,Да,женский,20,NULL
1696317469,35d05d7fad1466d30794182759bbe855,PennController,5,0,exercise,NULL,PennController,5,_Header_,Start,1696317362477,1KjhDwOcBb68qjcVT7bF7g,Да,женский,20,NULL
1696317469,35d05d7fad1466d30794182759bbe855,PennController,5,0,exercise,NULL,PennController,5,_Header_,End,1696317362477,1KjhDwOcBb68qjcVT7bF7g,Да,женский,20,NULL
1696317469,35d05d7fad1466d30794182759bbe855,PennController,5,0,exercise,NULL,Scale,Scale,Choice,1,1696317374493,1KjhDwOcBb68qjcVT7bF7g,Да,женский,20,NULL
1696317469,35d05d7fad1466d30794182759bbe855,PennController,5,0,exercise,NULL,PennController,5,_Trial_,End,1696317374801,1KjhDwOcBb68qjcVT7bF7g,Да,женский,20,NULL
1696317469,35d05d7fad1466d30794182759bbe855,PennController,6,0,exercise,NULL,PennController,6,_Trial_,Start,1696317374805,1KjhDwOcBb68qjcVT7bF7g,Да,женский,20,NULL
1696317469,35d05d7fad1466d30794182759bbe855,PennController,6,0,exercise,NULL,PennController,6,_Header_,Start,1696317374805,1KjhDwOcBb68qjcVT7bF7g,Да,женский,20,NULL
1696317469,35d05d7fad1466d30794182759bbe855,PennController,6,0,exercise,NULL,PennController,6,_Header_,End,1696317374805,1KjhDwOcBb68qjcVT7bF7g,Да,женский,20,NULL
1696317469,35d05d7fad1466d30794182759bbe855,PennController,6,0,exercise,NULL,Scale,Scale,Choice,7,1696317377604,1KjhDwOcBb68qjcVT7bF7g,Да,женский,20,NULL
1696317469,35d05d7fad1466d30794182759bbe855,PennController,6,0,exercise,NULL,PennController,6,_Trial_,End,1696317377909,1KjhDwOcBb68qjcVT7bF7g,Да,женский,20,NULL
1696317469,35d05d7fad1466d30794182759bbe855,PennController,7,0,exercise,NULL,PennController,7,_Trial_,Start,1696317377913,1KjhDwOcBb68qjcVT7bF7g,Да,женский,20,NULL
1696317469,35d05d7fad1466d30794182759bbe855,PennController,7,0,exercise,NULL,PennController,7,_Header_,Start,1696317377913,1KjhDwOcBb68qjcVT7bF7g,Да,женский,20,NULL
1696317469,35d05d7fad1466d30794182759bbe855,PennController,7,0,exercise,NULL,PennController,7,_Header_,End,1696317377913,1KjhDwOcBb68qjcVT7bF7g,Да,женский,20,NULL
1696317469,35d05d7fad1466d30794182759bbe855,PennController,7,0,exercise,NULL,Scale,Scale,Choice,7,1696317379775,1KjhDwOcBb68qjcVT7bF7g,Да,женский,20,NULL
1696317469,35d05d7fad1466d30794182759bbe855,PennController,7,0,exercise,NULL,PennController,7,_Trial_,End,1696317380083,1KjhDwOcBb68qjcVT7bF7g,Да,женский,20,NULL
1696317469,35d05d7fad1466d30794182759bbe855,PennController,8,0,start_experiment,NULL,PennController,3,_Trial_,Start,1696317380087,1KjhDwOcBb68qjcVT7bF7g,Да,женский,20,NULL
1696317469,35d05d7fad1466d30794182759bbe855,PennController,8,0,start_experiment,NULL,PennController,3,_Header_,Start,1696317380087,1KjhDwOcBb68qjcVT7bF7g,Да,женский,20,NULL
1696317469,35d05d7fad1466d30794182759bbe855,PennController,8,0,start_experiment,NULL,PennController,3,_Header_,End,1696317380088,1KjhDwOcBb68qjcVT7bF7g,Да,женский,20,NULL
1696317469,35d05d7fad1466d30794182759bbe855,PennController,8,0,start_experiment,NULL,PennController,3,_Trial_,End,1696317387584,1KjhDwOcBb68qjcVT7bF7g,Да,женский,20,NULL
# 17. ITEM.
# 18. CONDITION.
# 19. TENSE.
# 20. TYPE.
# 21. FILLER_TYPE.
# 22. Comments.
1696317469,35d05d7fad1466d30794182759bbe855,PennController,9,0,experiment-item,NULL,PennController,8,_Trial_,Start,1696317387587,1KjhDwOcBb68qjcVT7bF7g,Да,женский,20,seem-PST-1,seem,PST,item,,NULL
1696317469,35d05d7fad1466d30794182759bbe855,PennController,9,0,experiment-item,NULL,PennController,8,_Header_,Start,1696317387587,1KjhDwOcBb68qjcVT7bF7g,Да,женский,20,seem-PST-1,seem,PST,item,,NULL
1696317469,35d05d7fad1466d30794182759bbe855,PennController,9,0,experiment-item,NULL,PennController,8,_Header_,End,1696317387587,1KjhDwOcBb68qjcVT7bF7g,Да,женский,20,seem-PST-1,seem,PST,item,,NULL
1696317469,35d05d7fad1466d30794182759bbe855,PennController,9,0,experiment-item,NULL,Scale,Scale,Choice,7,1696317395767,1KjhDwOcBb68qjcVT7bF7g,Да,женский,20,seem-PST-1,seem,PST,item,,NULL
1696317469,35d05d7fad1466d30794182759bbe855,PennController,9,0,experiment-item,NULL,PennController,8,_Trial_,End,1696317396073,1KjhDwOcBb68qjcVT7bF7g,Да,женский,20,seem-PST-1,seem,PST,item,,NULL
1696317469,35d05d7fad1466d30794182759bbe855,PennController,21,0,experiment-filler,NULL,PennController,20,_Trial_,Start,1696317396076,1KjhDwOcBb68qjcVT7bF7g,Да,женский,20,filler-good-5,,,filler,good,NULL
1696317469,35d05d7fad1466d30794182759bbe855,PennController,21,0,experiment-filler,NULL,PennController,20,_Header_,Start,1696317396076,1KjhDwOcBb68qjcVT7bF7g,Да,женский,20,filler-good-5,,,filler,good,NULL
1696317469,35d05d7fad1466d30794182759bbe855,PennController,21,0,experiment-filler,NULL,PennController,20,_Header_,End,1696317396077,1KjhDwOcBb68qjcVT7bF7g,Да,женский,20,filler-good-5,,,filler,good,NULL
1696317469,35d05d7fad1466d30794182759bbe855,PennController,21,0,experiment-filler,NULL,Scale,Scale,Choice,7,1696317399625,1KjhDwOcBb68qjcVT7bF7g,Да,женский,20,filler-good-5,,,filler,good,NULL
1696317469,35d05d7fad1466d30794182759bbe855,PennController,21,0,experiment-filler,NULL,PennController,20,_Trial_,End,1696317399932,1KjhDwOcBb68qjcVT7bF7g,Да,женский,20,filler-good-5,,,filler,good,NULL
1696317469,35d05d7fad1466d30794182759bbe855,PennController,10,0,experiment-item,NULL,PennController,9,_Trial_,Start,1696317399936,1KjhDwOcBb68qjcVT7bF7g,Да,женский,20,poss-NPST-2,poss,NPST,item,,NULL
1696317469,35d05d7fad1466d30794182759bbe855,PennController,10,0,experiment-item,NULL,PennController,9,_Header_,Start,1696317399936,1KjhDwOcBb68qjcVT7bF7g,Да,женский,20,poss-NPST-2,poss,NPST,item,,NULL
1696317469,35d05d7fad1466d30794182759bbe855,PennController,10,0,experiment-item,NULL,PennController,9,_Header_,End,1696317399936,1KjhDwOcBb68qjcVT7bF7g,Да,женский,20,poss-NPST-2,poss,NPST,item,,NULL
1696317469,35d05d7fad1466d30794182759bbe855,PennController,10,0,experiment-item,NULL,Scale,Scale,Choice,7,1696317403110,1KjhDwOcBb68qjcVT7bF7g,Да,женский,20,poss-NPST-2,poss,NPST,item,,NULL
1696317469,35d05d7fad1466d30794182759bbe855,PennController,10,0,experiment-item,NULL,PennController,9,_Trial_,End,1696317403416,1KjhDwOcBb68qjcVT7bF7g,Да,женский,20,poss-NPST-2,poss,NPST,item,,NULL
1696317469,35d05d7fad1466d30794182759bbe855,PennController,24,0,experiment-filler,NULL,PennController,23,_Trial_,Start,1696317403418,1KjhDwOcBb68qjcVT7bF7g,Да,женский,20,filler-bad-8,,,filler,bad,NULL
1696317469,35d05d7fad1466d30794182759bbe855,PennController,24,0,experiment-filler,NULL,PennController,23,_Header_,Start,1696317403418,1KjhDwOcBb68qjcVT7bF7g,Да,женский,20,filler-bad-8,,,filler,bad,NULL
1696317469,35d05d7fad1466d30794182759bbe855,PennController,24,0,experiment-filler,NULL,PennController,23,_Header_,End,1696317403419,1KjhDwOcBb68qjcVT7bF7g,Да,женский,20,filler-bad-8,,,filler,bad,NULL
1696317469,35d05d7fad1466d30794182759bbe855,PennController,24,0,experiment-filler,NULL,Scale,Scale,Choice,1,1696317407958,1KjhDwOcBb68qjcVT7bF7g,Да,женский,20,filler-bad-8,,,filler,bad,NULL
1696317469,35d05d7fad1466d30794182759bbe855,PennController,24,0,experiment-filler,NULL,PennController,23,_Trial_,End,1696317408262,1KjhDwOcBb68qjcVT7bF7g,Да,женский,20,filler-bad-8,,,filler,bad,NULL
1696317469,35d05d7fad1466d30794182759bbe855,PennController,15,0,experiment-item,NULL,PennController,14,_Trial_,Start,1696317408266,1KjhDwOcBb68qjcVT7bF7g,Да,женский,20,seem-NPST-7,seem,NPST,item,,NULL
1696317469,35d05d7fad1466d30794182759bbe855,PennController,15,0,experiment-item,NULL,PennController,14,_Header_,Start,1696317408266,1KjhDwOcBb68qjcVT7bF7g,Да,женский,20,seem-NPST-7,seem,NPST,item,,NULL
1696317469,35d05d7fad1466d30794182759bbe855,PennController,15,0,experiment-item,NULL,PennController,14,_Header_,End,1696317408267,1KjhDwOcBb68qjcVT7bF7g,Да,женский,20,seem-NPST-7,seem,NPST,item,,NULL
1696317469,35d05d7fad1466d30794182759bbe855,PennController,15,0,experiment-item,NULL,Scale,Scale,Choice,7,1696317411038,1KjhDwOcBb68qjcVT7bF7g,Да,женский,20,seem-NPST-7,seem,NPST,item,,NULL
1696317469,35d05d7fad1466d30794182759bbe855,PennController,15,0,experiment-item,NULL,PennController,14,_Trial_,End,1696317411342,1KjhDwOcBb68qjcVT7bF7g,Да,женский,20,seem-NPST-7,seem,NPST,item,,NULL
1696317469,35d05d7fad1466d30794182759bbe855,PennController,23,0,experiment-filler,NULL,PennController,22,_Trial_,Start,1696317411345,1KjhDwOcBb68qjcVT7bF7g,Да,женский,20,filler-good-7,,,filler,good,NULL
1696317469,35d05d7fad1466d30794182759bbe855,PennController,23,0,experiment-filler,NULL,PennController,22,_Header_,Start,1696317411346,1KjhDwOcBb68qjcVT7bF7g,Да,женский,20,filler-good-7,,,filler,good,NULL
1696317469,35d05d7fad1466d30794182759bbe855,PennController,23,0,experiment-filler,NULL,PennController,22,_Header_,End,1696317411346,1KjhDwOcBb68qjcVT7bF7g,Да,женский,20,filler-good-7,,,filler,good,NULL
1696317469,35d05d7fad1466d30794182759bbe855,PennController,23,0,experiment-filler,NULL,Scale,Scale,Choice,7,1696317415475,1KjhDwOcBb68qjcVT7bF7g,Да,женский,20,filler-good-7,,,filler,good,NULL
1696317469,35d05d7fad1466d30794182759bbe855,PennController,23,0,experiment-filler,NULL,PennController,22,_Trial_,End,1696317415779,1KjhDwOcBb68qjcVT7bF7g,Да,женский,20,filler-good-7,,,filler,good,NULL
1696317469,35d05d7fad1466d30794182759bbe855,PennController,16,0,experiment-item,NULL,PennController,15,_Trial_,Start,1696317415782,1KjhDwOcBb68qjcVT7bF7g,Да,женский,20,poss-PST-8,poss,PST,item,,NULL
1696317469,35d05d7fad1466d30794182759bbe855,PennController,16,0,experiment-item,NULL,PennController,15,_Header_,Start,1696317415782,1KjhDwOcBb68qjcVT7bF7g,Да,женский,20,poss-PST-8,poss,PST,item,,NULL
1696317469,35d05d7fad1466d30794182759bbe855,PennController,16,0,experiment-item,NULL,PennController,15,_Header_,End,1696317415782,1KjhDwOcBb68qjcVT7bF7g,Да,женский,20,poss-PST-8,poss,PST,item,,NULL
1696317469,35d05d7fad1466d30794182759bbe855,PennController,16,0,experiment-item,NULL,Scale,Scale,Choice,7,1696317429291,1KjhDwOcBb68qjcVT7bF7g,Да,женский,20,poss-PST-8,poss,PST,item,,NULL
1696317469,35d05d7fad1466d30794182759bbe855,PennController,16,0,experiment-item,NULL,PennController,15,_Trial_,End,1696317429595,1KjhDwOcBb68qjcVT7bF7g,Да,женский,20,poss-PST-8,poss,PST,item,,NULL
1696317469,35d05d7fad1466d30794182759bbe855,PennController,20,0,experiment-filler,NULL,PennController,19,_Trial_,Start,1696317429598,1KjhDwOcBb68qjcVT7bF7g,Да,женский,20,filler-bad-4,,,filler,bad,NULL
1696317469,35d05d7fad1466d30794182759bbe855,PennController,20,0,experiment-filler,NULL,PennController,19,_Header_,Start,1696317429598,1KjhDwOcBb68qjcVT7bF7g,Да,женский,20,filler-bad-4,,,filler,bad,NULL
1696317469,35d05d7fad1466d30794182759bbe855,PennController,20,0,experiment-filler,NULL,PennController,19,_Header_,End,1696317429598,1KjhDwOcBb68qjcVT7bF7g,Да,женский,20,filler-bad-4,,,filler,bad,NULL
1696317469,35d05d7fad1466d30794182759bbe855,PennController,20,0,experiment-filler,NULL,Scale,Scale,Choice,1,1696317431716,1KjhDwOcBb68qjcVT7bF7g,Да,женский,20,filler-bad-4,,,filler,bad,NULL
1696317469,35d05d7fad1466d30794182759bbe855,PennController,20,0,experiment-filler,NULL,PennController,19,_Trial_,End,1696317432024,1KjhDwOcBb68qjcVT7bF7g,Да,женский,20,filler-bad-4,,,filler,bad,NULL
1696317469,35d05d7fad1466d30794182759bbe855,PennController,11,0,experiment-item,NULL,PennController,10,_Trial_,Start,1696317432027,1KjhDwOcBb68qjcVT7bF7g,Да,женский,20,seem-NPST-3,seem,NPST,item,,NULL
1696317469,35d05d7fad1466d30794182759bbe855,PennController,11,0,experiment-item,NULL,PennController,10,_Header_,Start,1696317432027,1KjhDwOcBb68qjcVT7bF7g,Да,женский,20,seem-NPST-3,seem,NPST,item,,NULL
1696317469,35d05d7fad1466d30794182759bbe855,PennController,11,0,experiment-item,NULL,PennController,10,_Header_,End,1696317432028,1KjhDwOcBb68qjcVT7bF7g,Да,женский,20,seem-NPST-3,seem,NPST,item,,NULL
1696317469,35d05d7fad1466d30794182759bbe855,PennController,11,0,experiment-item,NULL,Scale,Scale,Choice,7,1696317436379,1KjhDwOcBb68qjcVT7bF7g,Да,женский,20,seem-NPST-3,seem,NPST,item,,NULL
1696317469,35d05d7fad1466d30794182759bbe855,PennController,11,0,experiment-item,NULL,PennController,10,_Trial_,End,1696317436683,1KjhDwOcBb68qjcVT7bF7g,Да,женский,20,seem-NPST-3,seem,NPST,item,,NULL
1696317469,35d05d7fad1466d30794182759bbe855,PennController,19,0,experiment-filler,NULL,PennController,18,_Trial_,Start,1696317436686,1KjhDwOcBb68qjcVT7bF7g,Да,женский,20,filler-good-3,,,filler,good,NULL
1696317469,35d05d7fad1466d30794182759bbe855,PennController,19,0,experiment-filler,NULL,PennController,18,_Header_,Start,1696317436686,1KjhDwOcBb68qjcVT7bF7g,Да,женский,20,filler-good-3,,,filler,good,NULL
1696317469,35d05d7fad1466d30794182759bbe855,PennController,19,0,experiment-filler,NULL,PennController,18,_Header_,End,1696317436686,1KjhDwOcBb68qjcVT7bF7g,Да,женский,20,filler-good-3,,,filler,good,NULL
1696317469,35d05d7fad1466d30794182759bbe855,PennController,19,0,experiment-filler,NULL,Scale,Scale,Choice,7,1696317443670,1KjhDwOcBb68qjcVT7bF7g,Да,женский,20,filler-good-3,,,filler,good,NULL
1696317469,35d05d7fad1466d30794182759bbe855,PennController,19,0,experiment-filler,NULL,PennController,18,_Trial_,End,1696317443974,1KjhDwOcBb68qjcVT7bF7g,Да,женский,20,filler-good-3,,,filler,good,NULL
1696317469,35d05d7fad1466d30794182759bbe855,PennController,12,0,experiment-item,NULL,PennController,11,_Trial_,Start,1696317443977,1KjhDwOcBb68qjcVT7bF7g,Да,женский,20,poss-PST-4,poss,PST,item,,NULL
1696317469,35d05d7fad1466d30794182759bbe855,PennController,12,0,experiment-item,NULL,PennController,11,_Header_,Start,1696317443977,1KjhDwOcBb68qjcVT7bF7g,Да,женский,20,poss-PST-4,poss,PST,item,,NULL
1696317469,35d05d7fad1466d30794182759bbe855,PennController,12,0,experiment-item,NULL,PennController,11,_Header_,End,1696317443977,1KjhDwOcBb68qjcVT7bF7g,Да,женский,20,poss-PST-4,poss,PST,item,,NULL
1696317469,35d05d7fad1466d30794182759bbe855,PennController,12,0,experiment-item,NULL,Scale,Scale,Choice,7,1696317447654,1KjhDwOcBb68qjcVT7bF7g,Да,женский,20,poss-PST-4,poss,PST,item,,NULL
1696317469,35d05d7fad1466d30794182759bbe855,PennController,12,0,experiment-item,NULL,PennController,11,_Trial_,End,1696317447961,1KjhDwOcBb68qjcVT7bF7g,Да,женский,20,poss-PST-4,poss,PST,item,,NULL
1696317469,35d05d7fad1466d30794182759bbe855,PennController,18,0,experiment-filler,NULL,PennController,17,_Trial_,Start,1696317447963,1KjhDwOcBb68qjcVT7bF7g,Да,женский,20,filler-bad-2,,,filler,bad,NULL
1696317469,35d05d7fad1466d30794182759bbe855,PennController,18,0,experiment-filler,NULL,PennController,17,_Header_,Start,1696317447963,1KjhDwOcBb68qjcVT7bF7g,Да,женский,20,filler-bad-2,,,filler,bad,NULL
1696317469,35d05d7fad1466d30794182759bbe855,PennController,18,0,experiment-filler,NULL,PennController,17,_Header_,End,1696317447963,1KjhDwOcBb68qjcVT7bF7g,Да,женский,20,filler-bad-2,,,filler,bad,NULL
1696317469,35d05d7fad1466d30794182759bbe855,PennController,18,0,experiment-filler,NULL,Scale,Scale,Choice,1,1696317450133,1KjhDwOcBb68qjcVT7bF7g,Да,женский,20,filler-bad-2,,,filler,bad,NULL
1696317469,35d05d7fad1466d30794182759bbe855,PennController,18,0,experiment-filler,NULL,PennController,17,_Trial_,End,1696317450439,1KjhDwOcBb68qjcVT7bF7g,Да,женский,20,filler-bad-2,,,filler,bad,NULL
1696317469,35d05d7fad1466d30794182759bbe855,PennController,14,0,experiment-item,NULL,PennController,13,_Trial_,Start,1696317450442,1KjhDwOcBb68qjcVT7bF7g,Да,женский,20,poss-NPST-6,poss,NPST,item,,NULL
1696317469,35d05d7fad1466d30794182759bbe855,PennController,14,0,experiment-item,NULL,PennController,13,_Header_,Start,1696317450442,1KjhDwOcBb68qjcVT7bF7g,Да,женский,20,poss-NPST-6,poss,NPST,item,,NULL
1696317469,35d05d7fad1466d30794182759bbe855,PennController,14,0,experiment-item,NULL,PennController,13,_Header_,End,1696317450442,1KjhDwOcBb68qjcVT7bF7g,Да,женский,20,poss-NPST-6,poss,NPST,item,,NULL
1696317469,35d05d7fad1466d30794182759bbe855,PennController,14,0,experiment-item,NULL,Scale,Scale,Choice,7,1696317455865,1KjhDwOcBb68qjcVT7bF7g,Да,женский,20,poss-NPST-6,poss,NPST,item,,NULL
1696317469,35d05d7fad1466d30794182759bbe855,PennController,14,0,experiment-item,NULL,PennController,13,_Trial_,End,1696317456171,1KjhDwOcBb68qjcVT7bF7g,Да,женский,20,poss-NPST-6,poss,NPST,item,,NULL
1696317469,35d05d7fad1466d30794182759bbe855,PennController,22,0,experiment-filler,NULL,PennController,21,_Trial_,Start,1696317456173,1KjhDwOcBb68qjcVT7bF7g,Да,женский,20,filler-bad-6,,,filler,bad,NULL
1696317469,35d05d7fad1466d30794182759bbe855,PennController,22,0,experiment-filler,NULL,PennController,21,_Header_,Start,1696317456173,1KjhDwOcBb68qjcVT7bF7g,Да,женский,20,filler-bad-6,,,filler,bad,NULL
1696317469,35d05d7fad1466d30794182759bbe855,PennController,22,0,experiment-filler,NULL,PennController,21,_Header_,End,1696317456173,1KjhDwOcBb68qjcVT7bF7g,Да,женский,20,filler-bad-6,,,filler,bad,NULL
1696317469,35d05d7fad1466d30794182759bbe855,PennController,22,0,experiment-filler,NULL,Scale,Scale,Choice,4,1696317461345,1KjhDwOcBb68qjcVT7bF7g,Да,женский,20,filler-bad-6,,,filler,bad,NULL
1696317469,35d05d7fad1466d30794182759bbe855,PennController,22,0,experiment-filler,NULL,PennController,21,_Trial_,End,1696317461649,1KjhDwOcBb68qjcVT7bF7g,Да,женский,20,filler-bad-6,,,filler,bad,NULL
1696317469,35d05d7fad1466d30794182759bbe855,PennController,13,0,experiment-item,NULL,PennController,12,_Trial_,Start,1696317461651,1KjhDwOcBb68qjcVT7bF7g,Да,женский,20,seem-PST-5,seem,PST,item,,NULL
1696317469,35d05d7fad1466d30794182759bbe855,PennController,13,0,experiment-item,NULL,PennController,12,_Header_,Start,1696317461652,1KjhDwOcBb68qjcVT7bF7g,Да,женский,20,seem-PST-5,seem,PST,item,,NULL
1696317469,35d05d7fad1466d30794182759bbe855,PennController,13,0,experiment-item,NULL,PennController,12,_Header_,End,1696317461652,1KjhDwOcBb68qjcVT7bF7g,Да,женский,20,seem-PST-5,seem,PST,item,,NULL
1696317469,35d05d7fad1466d30794182759bbe855,PennController,13,0,experiment-item,NULL,Scale,Scale,Choice,7,1696317465762,1KjhDwOcBb68qjcVT7bF7g,Да,женский,20,seem-PST-5,seem,PST,item,,NULL
1696317469,35d05d7fad1466d30794182759bbe855,PennController,13,0,experiment-item,NULL,PennController,12,_Trial_,End,1696317466065,1KjhDwOcBb68qjcVT7bF7g,Да,женский,20,seem-PST-5,seem,PST,item,,NULL
1696317469,35d05d7fad1466d30794182759bbe855,PennController,17,0,experiment-filler,NULL,PennController,16,_Trial_,Start,1696317466068,1KjhDwOcBb68qjcVT7bF7g,Да,женский,20,filler-good-1,,,filler,good,NULL
1696317469,35d05d7fad1466d30794182759bbe855,PennController,17,0,experiment-filler,NULL,PennController,16,_Header_,Start,1696317466068,1KjhDwOcBb68qjcVT7bF7g,Да,женский,20,filler-good-1,,,filler,good,NULL
1696317469,35d05d7fad1466d30794182759bbe855,PennController,17,0,experiment-filler,NULL,PennController,16,_Header_,End,1696317466068,1KjhDwOcBb68qjcVT7bF7g,Да,женский,20,filler-good-1,,,filler,good,NULL
1696317469,35d05d7fad1466d30794182759bbe855,PennController,17,0,experiment-filler,NULL,Scale,Scale,Choice,7,1696317468892,1KjhDwOcBb68qjcVT7bF7g,Да,женский,20,filler-good-1,,,filler,good,NULL
1696317469,35d05d7fad1466d30794182759bbe855,PennController,17,0,experiment-filler,NULL,PennController,16,_Trial_,End,1696317469195,1KjhDwOcBb68qjcVT7bF7g,Да,женский,20,filler-good-1,,,filler,good,NULL
#
# Results on Thu, 05 Oct 2023 12:03:28 GMT
# USER AGENT: Mozilla/5.0 (Macintosh; Intel Mac OS X 10_15_7) AppleWebKit/605.1.15 (KHTML, like Gecko) Version/17.0 Safari/605.1.15
# Design number was non-random = 6
#
# Columns below this comment are as follows:
# 1. Results reception time.
# 2. MD5 hash of participant's IP address.
# 3. Controller name.
# 4. Order number of item.
# 5. Inner element number.
# 6. Label.
# 7. Latin Square Group.
# 8. PennElementType.
# 9. PennElementName.
# 10. Parameter.
# 11. Value.
# 12. EventTime.
# 13. code.
# 14. linguist.
# 15. gender.
# 16. age.
# 17. Comments.
1696507408,101aaea025066f9d25faeec90ef29111,PennController,1,0,ethics,NULL,PennController,0,_Trial_,Start,1696507185782,Y7KLnJpbRs43yYtI4zLoLw,undefined,undefined,undefined,NULL
1696507408,101aaea025066f9d25faeec90ef29111,PennController,1,0,ethics,NULL,PennController,0,_Header_,Start,1696507185782,Y7KLnJpbRs43yYtI4zLoLw,undefined,undefined,undefined,NULL
1696507408,101aaea025066f9d25faeec90ef29111,PennController,1,0,ethics,NULL,PennController,0,_Header_,End,1696507185783,Y7KLnJpbRs43yYtI4zLoLw,undefined,undefined,undefined,NULL
1696507408,101aaea025066f9d25faeec90ef29111,PennController,1,0,ethics,NULL,PennController,0,_Trial_,End,1696507198730,Y7KLnJpbRs43yYtI4zLoLw,undefined,undefined,undefined,NULL
1696507408,101aaea025066f9d25faeec90ef29111,PennController,3,0,participants,NULL,PennController,1,_Trial_,Start,1696507198741,Y7KLnJpbRs43yYtI4zLoLw,Нет,мужской,24,NULL
1696507408,101aaea025066f9d25faeec90ef29111,PennController,3,0,participants,NULL,PennController,1,_Header_,Start,1696507198741,Y7KLnJpbRs43yYtI4zLoLw,Нет,мужской,24,NULL
1696507408,101aaea025066f9d25faeec90ef29111,PennController,3,0,participants,NULL,PennController,1,_Header_,End,1696507198741,Y7KLnJpbRs43yYtI4zLoLw,Нет,мужской,24,NULL
1696507408,101aaea025066f9d25faeec90ef29111,PennController,3,0,participants,NULL,TextInput,input_age,First,,1696507201310,Y7KLnJpbRs43yYtI4zLoLw,Нет,мужской,24,2
1696507408,101aaea025066f9d25faeec90ef29111,PennController,3,0,participants,NULL,TextInput,input_age,EnterReturn,24,1696507201829,Y7KLnJpbRs43yYtI4zLoLw,Нет,мужской,24,NULL
1696507408,101aaea025066f9d25faeec90ef29111,PennController,3,0,participants,NULL,Scale,input_gender,Choice,мужской,1696507203811,Y7KLnJpbRs43yYtI4zLoLw,Нет,мужской,24,NULL
1696507408,101aaea025066f9d25faeec90ef29111,PennController,3,0,participants,NULL,Scale,input_linguist,Choice,Нет,1696507205428,Y7KLnJpbRs43yYtI4zLoLw,Нет,мужской,24,NULL
1696507408,101aaea025066f9d25faeec90ef29111,PennController,3,0,participants,NULL,TextInput,input_age,Final,24,1696507206268,Y7KLnJpbRs43yYtI4zLoLw,Нет,мужской,24,NULL
1696507408,101aaea025066f9d25faeec90ef29111,PennController,3,0,participants,NULL,PennController,1,_Trial_,End,1696507206269,Y7KLnJpbRs43yYtI4zLoLw,Нет,мужской,24,NULL
1696507408,101aaea025066f9d25faeec90ef29111,PennController,4,0,instructions,NULL,PennController,2,_Trial_,Start,1696507206271,Y7KLnJpbRs43yYtI4zLoLw,Нет,мужской,24,NULL
1696507408,101aaea025066f9d25faeec90ef29111,PennController,4,0,instructions,NULL,PennController,2,_Header_,Start,1696507206271,Y7KLnJpbRs43yYtI4zLoLw,Нет,мужской,24,NULL
1696507408,101aaea025066f9d25faeec90ef29111,PennController,4,0,instructions,NULL,PennController,2,_Header_,End,1696507206271,Y7KLnJpbRs43yYtI4zLoLw,Нет,мужской,24,NULL
1696507408,101aaea025066f9d25faeec90ef29111,PennController,4,0,instructions,NULL,PennController,2,_Trial_,End,1696507258218,Y7KLnJpbRs43yYtI4zLoLw,Нет,мужской,24,NULL
1696507408,101aaea025066f9d25faeec90ef29111,PennController,6,0,exercise,NULL,PennController,6,_Trial_,Start,1696507258221,Y7KLnJpbRs43yYtI4zLoLw,Нет,мужской,24,NULL
1696507408,101aaea025066f9d25faeec90ef29111,PennController,6,0,exercise,NULL,PennController,6,_Header_,Start,1696507258221,Y7KLnJpbRs43yYtI4zLoLw,Нет,мужской,24,NULL
1696507408,101aaea025066f9d25faeec90ef29111,PennController,6,0,exercise,NULL,PennController,6,_Header_,End,1696507258222,Y7KLnJpbRs43yYtI4zLoLw,Нет,мужской,24,NULL
1696507408,101aaea025066f9d25faeec90ef29111,PennController,6,0,exercise,NULL,Scale,Scale,Choice,7,1696507262295,Y7KLnJpbRs43yYtI4zLoLw,Нет,мужской,24,NULL
1696507408,101aaea025066f9d25faeec90ef29111,PennController,6,0,exercise,NULL,PennController,6,_Trial_,End,1696507262601,Y7KLnJpbRs43yYtI4zLoLw,Нет,мужской,24,NULL
1696507408,101aaea025066f9d25faeec90ef29111,PennController,5,0,exercise,NULL,PennController,5,_Trial_,Start,1696507262604,Y7KLnJpbRs43yYtI4zLoLw,Нет,мужской,24,NULL
1696507408,101aaea025066f9d25faeec90ef29111,PennController,5,0,exercise,NULL,PennController,5,_Header_,Start,1696507262604,Y7KLnJpbRs43yYtI4zLoLw,Нет,мужской,24,NULL
1696507408,101aaea025066f9d25faeec90ef29111,PennController,5,0,exercise,NULL,PennController,5,_Header_,End,1696507262604,Y7KLnJpbRs43yYtI4zLoLw,Нет,мужской,24,NULL
1696507408,101aaea025066f9d25faeec90ef29111,PennController,5,0,exercise,NULL,Scale,Scale,Choice,1,1696507264577,Y7KLnJpbRs43yYtI4zLoLw,Нет,мужской,24,NULL
1696507408,101aaea025066f9d25faeec90ef29111,PennController,5,0,exercise,NULL,PennController,5,_Trial_,End,1696507264883,Y7KLnJpbRs43yYtI4zLoLw,Нет,мужской,24,NULL
1696507408,101aaea025066f9d25faeec90ef29111,PennController,7,0,exercise,NULL,PennController,7,_Trial_,Start,1696507264886,Y7KLnJpbRs43yYtI4zLoLw,Нет,мужской,24,NULL
1696507408,101aaea025066f9d25faeec90ef29111,PennController,7,0,exercise,NULL,PennController,7,_Header_,Start,1696507264886,Y7KLnJpbRs43yYtI4zLoLw,Нет,мужской,24,NULL
1696507408,101aaea025066f9d25faeec90ef29111,PennController,7,0,exercise,NULL,PennController,7,_Header_,End,1696507264887,Y7KLnJpbRs43yYtI4zLoLw,Нет,мужской,24,NULL
1696507408,101aaea025066f9d25faeec90ef29111,PennController,7,0,exercise,NULL,Scale,Scale,Choice,7,1696507274346,Y7KLnJpbRs43yYtI4zLoLw,Нет,мужской,24,NULL
1696507408,101aaea025066f9d25faeec90ef29111,PennController,7,0,exercise,NULL,PennController,7,_Trial_,End,1696507274650,Y7KLnJpbRs43yYtI4zLoLw,Нет,мужской,24,NULL
1696507408,101aaea025066f9d25faeec90ef29111,PennController,8,0,start_experiment,NULL,PennController,3,_Trial_,Start,1696507274654,Y7KLnJpbRs43yYtI4zLoLw,Нет,мужской,24,NULL
1696507408,101aaea025066f9d25faeec90ef29111,PennController,8,0,start_experiment,NULL,PennController,3,_Header_,Start,1696507274654,Y7KLnJpbRs43yYtI4zLoLw,Нет,мужской,24,NULL
1696507408,101aaea025066f9d25faeec90ef29111,PennController,8,0,start_experiment,NULL,PennController,3,_Header_,End,1696507274655,Y7KLnJpbRs43yYtI4zLoLw,Нет,мужской,24,NULL
1696507408,101aaea025066f9d25faeec90ef29111,PennController,8,0,start_experiment,NULL,PennController,3,_Trial_,End,1696507276112,Y7KLnJpbRs43yYtI4zLoLw,Нет,мужской,24,NULL
# 17. ITEM.
# 18. CONDITION.
# 19. TENSE.
# 20. TYPE.
# 21. FILLER_TYPE.
# 22. Comments.
1696507408,101aaea025066f9d25faeec90ef29111,PennController,14,0,experiment-item,NULL,PennController,13,_Trial_,Start,1696507276114,Y7KLnJpbRs43yYtI4zLoLw,Нет,мужской,24,poss-NPST-6,poss,NPST,item,,NULL
1696507408,101aaea025066f9d25faeec90ef29111,PennController,14,0,experiment-item,NULL,PennController,13,_Header_,Start,1696507276114,Y7KLnJpbRs43yYtI4zLoLw,Нет,мужской,24,poss-NPST-6,poss,NPST,item,,NULL
1696507408,101aaea025066f9d25faeec90ef29111,PennController,14,0,experiment-item,NULL,PennController,13,_Header_,End,1696507276115,Y7KLnJpbRs43yYtI4zLoLw,Нет,мужской,24,poss-NPST-6,poss,NPST,item,,NULL
1696507408,101aaea025066f9d25faeec90ef29111,PennController,14,0,experiment-item,NULL,Scale,Scale,Choice,6,1696507288028,Y7KLnJpbRs43yYtI4zLoLw,Нет,мужской,24,poss-NPST-6,poss,NPST,item,,NULL
1696507408,101aaea025066f9d25faeec90ef29111,PennController,14,0,experiment-item,NULL,PennController,13,_Trial_,End,1696507288334,Y7KLnJpbRs43yYtI4zLoLw,Нет,мужской,24,poss-NPST-6,poss,NPST,item,,NULL
1696507408,101aaea025066f9d25faeec90ef29111,PennController,17,0,experiment-filler,NULL,PennController,16,_Trial_,Start,1696507288338,Y7KLnJpbRs43yYtI4zLoLw,Нет,мужской,24,filler-good-1,,,filler,good,NULL
1696507408,101aaea025066f9d25faeec90ef29111,PennController,17,0,experiment-filler,NULL,PennController,16,_Header_,Start,1696507288338,Y7KLnJpbRs43yYtI4zLoLw,Нет,мужской,24,filler-good-1,,,filler,good,NULL
1696507408,101aaea025066f9d25faeec90ef29111,PennController,17,0,experiment-filler,NULL,PennController,16,_Header_,End,1696507288338,Y7KLnJpbRs43yYtI4zLoLw,Нет,мужской,24,filler-good-1,,,filler,good,NULL
1696507408,101aaea025066f9d25faeec90ef29111,PennController,17,0,experiment-filler,NULL,Scale,Scale,Choice,6,1696507298711,Y7KLnJpbRs43yYtI4zLoLw,Нет,мужской,24,filler-good-1,,,filler,good,NULL
1696507408,101aaea025066f9d25faeec90ef29111,PennController,17,0,experiment-filler,NULL,PennController,16,_Trial_,End,1696507299017,Y7KLnJpbRs43yYtI4zLoLw,Нет,мужской,24,filler-good-1,,,filler,good,NULL
1696507408,101aaea025066f9d25faeec90ef29111,PennController,15,0,experiment-item,NULL,PennController,14,_Trial_,Start,1696507299020,Y7KLnJpbRs43yYtI4zLoLw,Нет,мужской,24,seem-NPST-7,seem,NPST,item,,NULL
1696507408,101aaea025066f9d25faeec90ef29111,PennController,15,0,experiment-item,NULL,PennController,14,_Header_,Start,1696507299020,Y7KLnJpbRs43yYtI4zLoLw,Нет,мужской,24,seem-NPST-7,seem,NPST,item,,NULL
1696507408,101aaea025066f9d25faeec90ef29111,PennController,15,0,experiment-item,NULL,PennController,14,_Header_,End,1696507299021,Y7KLnJpbRs43yYtI4zLoLw,Нет,мужской,24,seem-NPST-7,seem,NPST,item,,NULL
1696507408,101aaea025066f9d25faeec90ef29111,PennController,15,0,experiment-item,NULL,Scale,Scale,Choice,7,1696507309894,Y7KLnJpbRs43yYtI4zLoLw,Нет,мужской,24,seem-NPST-7,seem,NPST,item,,NULL
1696507408,101aaea025066f9d25faeec90ef29111,PennController,15,0,experiment-item,NULL,PennController,14,_Trial_,End,1696507310199,Y7KLnJpbRs43yYtI4zLoLw,Нет,мужской,24,seem-NPST-7,seem,NPST,item,,NULL
1696507408,101aaea025066f9d25faeec90ef29111,PennController,23,0,experiment-filler,NULL,PennController,22,_Trial_,Start,1696507310202,Y7KLnJpbRs43yYtI4zLoLw,Нет,мужской,24,filler-good-7,,,filler,good,NULL
1696507408,101aaea025066f9d25faeec90ef29111,PennController,23,0,experiment-filler,NULL,PennController,22,_Header_,Start,1696507310202,Y7KLnJpbRs43yYtI4zLoLw,Нет,мужской,24,filler-good-7,,,filler,good,NULL
1696507408,101aaea025066f9d25faeec90ef29111,PennController,23,0,experiment-filler,NULL,PennController,22,_Header_,End,1696507310203,Y7KLnJpbRs43yYtI4zLoLw,Нет,мужской,24,filler-good-7,,,filler,good,NULL
1696507408,101aaea025066f9d25faeec90ef29111,PennController,23,0,experiment-filler,NULL,Scale,Scale,Choice,5,1696507317211,Y7KLnJpbRs43yYtI4zLoLw,Нет,мужской,24,filler-good-7,,,filler,good,NULL
1696507408,101aaea025066f9d25faeec90ef29111,PennController,23,0,experiment-filler,NULL,PennController,22,_Trial_,End,1696507317514,Y7KLnJpbRs43yYtI4zLoLw,Нет,мужской,24,filler-good-7,,,filler,good,NULL
1696507408,101aaea025066f9d25faeec90ef29111,PennController,13,0,experiment-item,NULL,PennController,12,_Trial_,Start,1696507317517,Y7KLnJpbRs43yYtI4zLoLw,Нет,мужской,24,seem-PST-5,seem,PST,item,,NULL
1696507408,101aaea025066f9d25faeec90ef29111,PennController,13,0,experiment-item,NULL,PennController,12,_Header_,Start,1696507317517,Y7KLnJpbRs43yYtI4zLoLw,Нет,мужской,24,seem-PST-5,seem,PST,item,,NULL
1696507408,101aaea025066f9d25faeec90ef29111,PennController,13,0,experiment-item,NULL,PennController,12,_Header_,End,1696507317517,Y7KLnJpbRs43yYtI4zLoLw,Нет,мужской,24,seem-PST-5,seem,PST,item,,NULL
1696507408,101aaea025066f9d25faeec90ef29111,PennController,13,0,experiment-item,NULL,Scale,Scale,Choice,5,1696507332061,Y7KLnJpbRs43yYtI4zLoLw,Нет,мужской,24,seem-PST-5,seem,PST,item,,NULL
1696507408,101aaea025066f9d25faeec90ef29111,PennController,13,0,experiment-item,NULL,PennController,12,_Trial_,End,1696507332366,Y7KLnJpbRs43yYtI4zLoLw,Нет,мужской,24,seem-PST-5,seem,PST,item,,NULL
1696507408,101aaea025066f9d25faeec90ef29111,PennController,24,0,experiment-filler,NULL,PennController,23,_Trial_,Start,1696507332369,Y7KLnJpbRs43yYtI4zLoLw,Нет,мужской,24,filler-bad-8,,,filler,bad,NULL
1696507408,101aaea025066f9d25faeec90ef29111,PennController,24,0,experiment-filler,NULL,PennController,23,_Header_,Start,1696507332369,Y7KLnJpbRs43yYtI4zLoLw,Нет,мужской,24,filler-bad-8,,,filler,bad,NULL
1696507408,101aaea025066f9d25faeec90ef29111,PennController,24,0,experiment-filler,NULL,PennController,23,_Header_,End,1696507332370,Y7KLnJpbRs43yYtI4zLoLw,Нет,мужской,24,filler-bad-8,,,filler,bad,NULL
1696507408,101aaea025066f9d25faeec90ef29111,PennController,24,0,experiment-filler,NULL,Scale,Scale,Choice,1,1696507339828,Y7KLnJpbRs43yYtI4zLoLw,Нет,мужской,24,filler-bad-8,,,filler,bad,NULL
1696507408,101aaea025066f9d25faeec90ef29111,PennController,24,0,experiment-filler,NULL,PennController,23,_Trial_,End,1696507340133,Y7KLnJpbRs43yYtI4zLoLw,Нет,мужской,24,filler-bad-8,,,filler,bad,NULL
1696507408,101aaea025066f9d25faeec90ef29111,PennController,12,0,experiment-item,NULL,PennController,11,_Trial_,Start,1696507340136,Y7KLnJpbRs43yYtI4zLoLw,Нет,мужской,24,poss-PST-4,poss,PST,item,,NULL
1696507408,101aaea025066f9d25faeec90ef29111,PennController,12,0,experiment-item,NULL,PennController,11,_Header_,Start,1696507340136,Y7KLnJpbRs43yYtI4zLoLw,Нет,мужской,24,poss-PST-4,poss,PST,item,,NULL
1696507408,101aaea025066f9d25faeec90ef29111,PennController,12,0,experiment-item,NULL,PennController,11,_Header_,End,1696507340136,Y7KLnJpbRs43yYtI4zLoLw,Нет,мужской,24,poss-PST-4,poss,PST,item,,NULL
1696507408,101aaea025066f9d25faeec90ef29111,PennController,12,0,experiment-item,NULL,Scale,Scale,Choice,2,1696507347078,Y7KLnJpbRs43yYtI4zLoLw,Нет,мужской,24,poss-PST-4,poss,PST,item,,NULL
1696507408,101aaea025066f9d25faeec90ef29111,PennController,12,0,experiment-item,NULL,PennController,11,_Trial_,End,1696507347385,Y7KLnJpbRs43yYtI4zLoLw,Нет,мужской,24,poss-PST-4,poss,PST,item,,NULL
1696507408,101aaea025066f9d25faeec90ef29111,PennController,20,0,experiment-filler,NULL,PennController,19,_Trial_,Start,1696507347388,Y7KLnJpbRs43yYtI4zLoLw,Нет,мужской,24,filler-bad-4,,,filler,bad,NULL
1696507408,101aaea025066f9d25faeec90ef29111,PennController,20,0,experiment-filler,NULL,PennController,19,_Header_,Start,1696507347388,Y7KLnJpbRs43yYtI4zLoLw,Нет,мужской,24,filler-bad-4,,,filler,bad,NULL
1696507408,101aaea025066f9d25faeec90ef29111,PennController,20,0,experiment-filler,NULL,PennController,19,_Header_,End,1696507347388,Y7KLnJpbRs43yYtI4zLoLw,Нет,мужской,24,filler-bad-4,,,filler,bad,NULL
1696507408,101aaea025066f9d25faeec90ef29111,PennController,20,0,experiment-filler,NULL,Scale,Scale,Choice,1,1696507351962,Y7KLnJpbRs43yYtI4zLoLw,Нет,мужской,24,filler-bad-4,,,filler,bad,NULL
1696507408,101aaea025066f9d25faeec90ef29111,PennController,20,0,experiment-filler,NULL,PennController,19,_Trial_,End,1696507352265,Y7KLnJpbRs43yYtI4zLoLw,Нет,мужской,24,filler-bad-4,,,filler,bad,NULL
1696507408,101aaea025066f9d25faeec90ef29111,PennController,11,0,experiment-item,NULL,PennController,10,_Trial_,Start,1696507352268,Y7KLnJpbRs43yYtI4zLoLw,Нет,мужской,24,seem-NPST-3,seem,NPST,item,,NULL
1696507408,101aaea025066f9d25faeec90ef29111,PennController,11,0,experiment-item,NULL,PennController,10,_Header_,Start,1696507352268,Y7KLnJpbRs43yYtI4zLoLw,Нет,мужской,24,seem-NPST-3,seem,NPST,item,,NULL
1696507408,101aaea025066f9d25faeec90ef29111,PennController,11,0,experiment-item,NULL,PennController,10,_Header_,End,1696507352268,Y7KLnJpbRs43yYtI4zLoLw,Нет,мужской,24,seem-NPST-3,seem,NPST,item,,NULL
1696507408,101aaea025066f9d25faeec90ef29111,PennController,11,0,experiment-item,NULL,Scale,Scale,Choice,6,1696507360145,Y7KLnJpbRs43yYtI4zLoLw,Нет,мужской,24,seem-NPST-3,seem,NPST,item,,NULL
1696507408,101aaea025066f9d25faeec90ef29111,PennController,11,0,experiment-item,NULL,PennController,10,_Trial_,End,1696507360449,Y7KLnJpbRs43yYtI4zLoLw,Нет,мужской,24,seem-NPST-3,seem,NPST,item,,NULL
1696507408,101aaea025066f9d25faeec90ef29111,PennController,19,0,experiment-filler,NULL,PennController,18,_Trial_,Start,1696507360452,Y7KLnJpbRs43yYtI4zLoLw,Нет,мужской,24,filler-good-3,,,filler,good,NULL
1696507408,101aaea025066f9d25faeec90ef29111,PennController,19,0,experiment-filler,NULL,PennController,18,_Header_,Start,1696507360452,Y7KLnJpbRs43yYtI4zLoLw,Нет,мужской,24,filler-good-3,,,filler,good,NULL
1696507408,101aaea025066f9d25faeec90ef29111,PennController,19,0,experiment-filler,NULL,PennController,18,_Header_,End,1696507360452,Y7KLnJpbRs43yYtI4zLoLw,Нет,мужской,24,filler-good-3,,,filler,good,NULL
1696507408,101aaea025066f9d25faeec90ef29111,PennController,19,0,experiment-filler,NULL,Scale,Scale,Choice,7,1696507367728,Y7KLnJpbRs43yYtI4zLoLw,Нет,мужской,24,filler-good-3,,,filler,good,NULL
1696507408,101aaea025066f9d25faeec90ef29111,PennController,19,0,experiment-filler,NULL,PennController,18,_Trial_,End,1696507368031,Y7KLnJpbRs43yYtI4zLoLw,Нет,мужской,24,filler-good-3,,,filler,good,NULL
1696507408,101aaea025066f9d25faeec90ef29111,PennController,16,0,experiment-item,NULL,PennController,15,_Trial_,Start,1696507368034,Y7KLnJpbRs43yYtI4zLoLw,Нет,мужской,24,poss-PST-8,poss,PST,item,,NULL
1696507408,101aaea025066f9d25faeec90ef29111,PennController,16,0,experiment-item,NULL,PennController,15,_Header_,Start,1696507368034,Y7KLnJpbRs43yYtI4zLoLw,Нет,мужской,24,poss-PST-8,poss,PST,item,,NULL
1696507408,101aaea025066f9d25faeec90ef29111,PennController,16,0,experiment-item,NULL,PennController,15,_Header_,End,1696507368034,Y7KLnJpbRs43yYtI4zLoLw,Нет,мужской,24,poss-PST-8,poss,PST,item,,NULL
1696507408,101aaea025066f9d25faeec90ef29111,PennController,16,0,experiment-item,NULL,Scale,Scale,Choice,4,1696507373595,Y7KLnJpbRs43yYtI4zLoLw,Нет,мужской,24,poss-PST-8,poss,PST,item,,NULL
1696507408,101aaea025066f9d25faeec90ef29111,PennController,16,0,experiment-item,NULL,PennController,15,_Trial_,End,1696507373900,Y7KLnJpbRs43yYtI4zLoLw,Нет,мужской,24,poss-PST-8,poss,PST,item,,NULL
1696507408,101aaea025066f9d25faeec90ef29111,PennController,21,0,experiment-filler,NULL,PennController,20,_Trial_,Start,1696507373903,Y7KLnJpbRs43yYtI4zLoLw,Нет,мужской,24,filler-good-5,,,filler,good,NULL
1696507408,101aaea025066f9d25faeec90ef29111,PennController,21,0,experiment-filler,NULL,PennController,20,_Header_,Start,1696507373903,Y7KLnJpbRs43yYtI4zLoLw,Нет,мужской,24,filler-good-5,,,filler,good,NULL
1696507408,101aaea025066f9d25faeec90ef29111,PennController,21,0,experiment-filler,NULL,PennController,20,_Header_,End,1696507373903,Y7KLnJpbRs43yYtI4zLoLw,Нет,мужской,24,filler-good-5,,,filler,good,NULL
1696507408,101aaea025066f9d25faeec90ef29111,PennController,21,0,experiment-filler,NULL,Scale,Scale,Choice,6,1696507379948,Y7KLnJpbRs43yYtI4zLoLw,Нет,мужской,24,filler-good-5,,,filler,good,NULL
1696507408,101aaea025066f9d25faeec90ef29111,PennController,21,0,experiment-filler,NULL,PennController,20,_Trial_,End,1696507380250,Y7KLnJpbRs43yYtI4zLoLw,Нет,мужской,24,filler-good-5,,,filler,good,NULL
1696507408,101aaea025066f9d25faeec90ef29111,PennController,10,0,experiment-item,NULL,PennController,9,_Trial_,Start,1696507380253,Y7KLnJpbRs43yYtI4zLoLw,Нет,мужской,24,poss-NPST-2,poss,NPST,item,,NULL
1696507408,101aaea025066f9d25faeec90ef29111,PennController,10,0,experiment-item,NULL,PennController,9,_Header_,Start,1696507380253,Y7KLnJpbRs43yYtI4zLoLw,Нет,мужской,24,poss-NPST-2,poss,NPST,item,,NULL
1696507408,101aaea025066f9d25faeec90ef29111,PennController,10,0,experiment-item,NULL,PennController,9,_Header_,End,1696507380253,Y7KLnJpbRs43yYtI4zLoLw,Нет,мужской,24,poss-NPST-2,poss,NPST,item,,NULL
1696507408,101aaea025066f9d25faeec90ef29111,PennController,10,0,experiment-item,NULL,Scale,Scale,Choice,7,1696507387567,Y7KLnJpbRs43yYtI4zLoLw,Нет,мужской,24,poss-NPST-2,poss,NPST,item,,NULL
1696507408,101aaea025066f9d25faeec90ef29111,PennController,10,0,experiment-item,NULL,PennController,9,_Trial_,End,1696507387871,Y7KLnJpbRs43yYtI4zLoLw,Нет,мужской,24,poss-NPST-2,poss,NPST,item,,NULL
1696507408,101aaea025066f9d25faeec90ef29111,PennController,22,0,experiment-filler,NULL,PennController,21,_Trial_,Start,1696507387874,Y7KLnJpbRs43yYtI4zLoLw,Нет,мужской,24,filler-bad-6,,,filler,bad,NULL
1696507408,101aaea025066f9d25faeec90ef29111,PennController,22,0,experiment-filler,NULL,PennController,21,_Header_,Start,1696507387874,Y7KLnJpbRs43yYtI4zLoLw,Нет,мужской,24,filler-bad-6,,,filler,bad,NULL
1696507408,101aaea025066f9d25faeec90ef29111,PennController,22,0,experiment-filler,NULL,PennController,21,_Header_,End,1696507387874,Y7KLnJpbRs43yYtI4zLoLw,Нет,мужской,24,filler-bad-6,,,filler,bad,NULL
1696507408,101aaea025066f9d25faeec90ef29111,PennController,22,0,experiment-filler,NULL,Scale,Scale,Choice,1,1696507390865,Y7KLnJpbRs43yYtI4zLoLw,Нет,мужской,24,filler-bad-6,,,filler,bad,NULL
1696507408,101aaea025066f9d25faeec90ef29111,PennController,22,0,experiment-filler,NULL,PennController,21,_Trial_,End,1696507391168,Y7KLnJpbRs43yYtI4zLoLw,Нет,мужской,24,filler-bad-6,,,filler,bad,NULL
1696507408,101aaea025066f9d25faeec90ef29111,PennController,9,0,experiment-item,NULL,PennController,8,_Trial_,Start,1696507391170,Y7KLnJpbRs43yYtI4zLoLw,Нет,мужской,24,seem-PST-1,seem,PST,item,,NULL
1696507408,101aaea025066f9d25faeec90ef29111,PennController,9,0,experiment-item,NULL,PennController,8,_Header_,Start,1696507391170,Y7KLnJpbRs43yYtI4zLoLw,Нет,мужской,24,seem-PST-1,seem,PST,item,,NULL
1696507408,101aaea025066f9d25faeec90ef29111,PennController,9,0,experiment-item,NULL,PennController,8,_Header_,End,1696507391171,Y7KLnJpbRs43yYtI4zLoLw,Нет,мужской,24,seem-PST-1,seem,PST,item,,NULL
1696507408,101aaea025066f9d25faeec90ef29111,PennController,9,0,experiment-item,NULL,Scale,Scale,Choice,6,1696507399494,Y7KLnJpbRs43yYtI4zLoLw,Нет,мужской,24,seem-PST-1,seem,PST,item,,NULL
1696507408,101aaea025066f9d25faeec90ef29111,PennController,9,0,experiment-item,NULL,PennController,8,_Trial_,End,1696507399802,Y7KLnJpbRs43yYtI4zLoLw,Нет,мужской,24,seem-PST-1,seem,PST,item,,NULL
1696507408,101aaea025066f9d25faeec90ef29111,PennController,18,0,experiment-filler,NULL,PennController,17,_Trial_,Start,1696507399804,Y7KLnJpbRs43yYtI4zLoLw,Нет,мужской,24,filler-bad-2,,,filler,bad,NULL
1696507408,101aaea025066f9d25faeec90ef29111,PennController,18,0,experiment-filler,NULL,PennController,17,_Header_,Start,1696507399804,Y7KLnJpbRs43yYtI4zLoLw,Нет,мужской,24,filler-bad-2,,,filler,bad,NULL
1696507408,101aaea025066f9d25faeec90ef29111,PennController,18,0,experiment-filler,NULL,PennController,17,_Header_,End,1696507399804,Y7KLnJpbRs43yYtI4zLoLw,Нет,мужской,24,filler-bad-2,,,filler,bad,NULL
1696507408,101aaea025066f9d25faeec90ef29111,PennController,18,0,experiment-filler,NULL,Scale,Scale,Choice,2,1696507407712,Y7KLnJpbRs43yYtI4zLoLw,Нет,мужской,24,filler-bad-2,,,filler,bad,NULL
1696507408,101aaea025066f9d25faeec90ef29111,PennController,18,0,experiment-filler,NULL,PennController,17,_Trial_,End,1696507408019,Y7KLnJpbRs43yYtI4zLoLw,Нет,мужской,24,filler-bad-2,,,filler,bad,NULL
#
# Results on Thu, 05 Oct 2023 12:05:51 GMT
# USER AGENT: Mozilla/5.0 (X11; Linux x86_64; rv:109.0) Gecko/20100101 Firefox/118.0
# Design number was non-random = 7
#
# Columns below this comment are as follows:
# 1. Results reception time.
# 2. MD5 hash of participant's IP address.
# 3. Controller name.
# 4. Order number of item.
# 5. Inner element number.
# 6. Label.
# 7. Latin Square Group.
# 8. PennElementType.
# 9. PennElementName.
# 10. Parameter.
# 11. Value.
# 12. EventTime.
# 13. code.
# 14. linguist.
# 15. gender.
# 16. age.
# 17. Comments.
1696507551,f440b9bd1e91ae3717bde7071734e8a1,PennController,1,0,ethics,NULL,PennController,0,_Header_,Start,1696507153438,ezrc43WwonvTb2B4V7xidw,undefined,undefined,undefined,NULL
1696507551,f440b9bd1e91ae3717bde7071734e8a1,PennController,1,0,ethics,NULL,PennController,0,_Trial_,Start,1696507153438,ezrc43WwonvTb2B4V7xidw,undefined,undefined,undefined,NULL
1696507551,f440b9bd1e91ae3717bde7071734e8a1,PennController,1,0,ethics,NULL,PennController,0,_Header_,End,1696507153439,ezrc43WwonvTb2B4V7xidw,undefined,undefined,undefined,NULL
1696507551,f440b9bd1e91ae3717bde7071734e8a1,PennController,1,0,ethics,NULL,PennController,0,_Trial_,End,1696507161549,ezrc43WwonvTb2B4V7xidw,undefined,undefined,undefined,NULL
1696507551,f440b9bd1e91ae3717bde7071734e8a1,PennController,3,0,participants,NULL,PennController,1,_Header_,End,1696507161556,ezrc43WwonvTb2B4V7xidw,Нет,женский,21,NULL
1696507551,f440b9bd1e91ae3717bde7071734e8a1,PennController,3,0,participants,NULL,PennController,1,_Header_,Start,1696507161556,ezrc43WwonvTb2B4V7xidw,Нет,женский,21,NULL
1696507551,f440b9bd1e91ae3717bde7071734e8a1,PennController,3,0,participants,NULL,PennController,1,_Trial_,Start,1696507161556,ezrc43WwonvTb2B4V7xidw,Нет,женский,21,NULL
1696507551,f440b9bd1e91ae3717bde7071734e8a1,PennController,3,0,participants,NULL,TextInput,input_age,First,,1696507164593,ezrc43WwonvTb2B4V7xidw,Нет,женский,21,2
1696507551,f440b9bd1e91ae3717bde7071734e8a1,PennController,3,0,participants,NULL,TextInput,input_age,EnterReturn,21,1696507167243,ezrc43WwonvTb2B4V7xidw,Нет,женский,21,NULL
1696507551,f440b9bd1e91ae3717bde7071734e8a1,PennController,3,0,participants,NULL,Scale,input_gender,Choice,женский,1696507170140,ezrc43WwonvTb2B4V7xidw,Нет,женский,21,NULL
1696507551,f440b9bd1e91ae3717bde7071734e8a1,PennController,3,0,participants,NULL,Scale,input_linguist,Choice,Нет,1696507173869,ezrc43WwonvTb2B4V7xidw,Нет,женский,21,NULL
1696507551,f440b9bd1e91ae3717bde7071734e8a1,PennController,3,0,participants,NULL,TextInput,input_age,Final,21,1696507174718,ezrc43WwonvTb2B4V7xidw,Нет,женский,21,NULL
1696507551,f440b9bd1e91ae3717bde7071734e8a1,PennController,3,0,participants,NULL,PennController,1,_Trial_,End,1696507174719,ezrc43WwonvTb2B4V7xidw,Нет,женский,21,NULL
1696507551,f440b9bd1e91ae3717bde7071734e8a1,PennController,4,0,instructions,NULL,PennController,2,_Header_,End,1696507174722,ezrc43WwonvTb2B4V7xidw,Нет,женский,21,NULL
1696507551,f440b9bd1e91ae3717bde7071734e8a1,PennController,4,0,instructions,NULL,PennController,2,_Header_,Start,1696507174722,ezrc43WwonvTb2B4V7xidw,Нет,женский,21,NULL
1696507551,f440b9bd1e91ae3717bde7071734e8a1,PennController,4,0,instructions,NULL,PennController,2,_Trial_,Start,1696507174722,ezrc43WwonvTb2B4V7xidw,Нет,женский,21,NULL
1696507551,f440b9bd1e91ae3717bde7071734e8a1,PennController,4,0,instructions,NULL,PennController,2,_Trial_,End,1696507253952,ezrc43WwonvTb2B4V7xidw,Нет,женский,21,NULL
1696507551,f440b9bd1e91ae3717bde7071734e8a1,PennController,5,0,exercise,NULL,PennController,5,_Header_,End,1696507253958,ezrc43WwonvTb2B4V7xidw,Нет,женский,21,NULL
1696507551,f440b9bd1e91ae3717bde7071734e8a1,PennController,5,0,exercise,NULL,PennController,5,_Header_,Start,1696507253958,ezrc43WwonvTb2B4V7xidw,Нет,женский,21,NULL
1696507551,f440b9bd1e91ae3717bde7071734e8a1,PennController,5,0,exercise,NULL,PennController,5,_Trial_,Start,1696507253958,ezrc43WwonvTb2B4V7xidw,Нет,женский,21,NULL
1696507551,f440b9bd1e91ae3717bde7071734e8a1,PennController,5,0,exercise,NULL,Scale,Scale,Choice,1,1696507262099,ezrc43WwonvTb2B4V7xidw,Нет,женский,21,NULL
1696507551,f440b9bd1e91ae3717bde7071734e8a1,PennController,5,0,exercise,NULL,PennController,5,_Trial_,End,1696507262401,ezrc43WwonvTb2B4V7xidw,Нет,женский,21,NULL
1696507551,f440b9bd1e91ae3717bde7071734e8a1,PennController,7,0,exercise,NULL,PennController,7,_Header_,Start,1696507262402,ezrc43WwonvTb2B4V7xidw,Нет,женский,21,NULL
1696507551,f440b9bd1e91ae3717bde7071734e8a1,PennController,7,0,exercise,NULL,PennController,7,_Trial_,Start,1696507262402,ezrc43WwonvTb2B4V7xidw,Нет,женский,21,NULL
1696507551,f440b9bd1e91ae3717bde7071734e8a1,PennController,7,0,exercise,NULL,PennController,7,_Header_,End,1696507262403,ezrc43WwonvTb2B4V7xidw,Нет,женский,21,NULL
1696507551,f440b9bd1e91ae3717bde7071734e8a1,PennController,7,0,exercise,NULL,Scale,Scale,Choice,7,1696507270619,ezrc43WwonvTb2B4V7xidw,Нет,женский,21,NULL
1696507551,f440b9bd1e91ae3717bde7071734e8a1,PennController,7,0,exercise,NULL,PennController,7,_Trial_,End,1696507270921,ezrc43WwonvTb2B4V7xidw,Нет,женский,21,NULL
1696507551,f440b9bd1e91ae3717bde7071734e8a1,PennController,6,0,exercise,NULL,PennController,6,_Header_,End,1696507270923,ezrc43WwonvTb2B4V7xidw,Нет,женский,21,NULL
1696507551,f440b9bd1e91ae3717bde7071734e8a1,PennController,6,0,exercise,NULL,PennController,6,_Header_,Start,1696507270923,ezrc43WwonvTb2B4V7xidw,Нет,женский,21,NULL
1696507551,f440b9bd1e91ae3717bde7071734e8a1,PennController,6,0,exercise,NULL,PennController,6,_Trial_,Start,1696507270923,ezrc43WwonvTb2B4V7xidw,Нет,женский,21,NULL
1696507551,f440b9bd1e91ae3717bde7071734e8a1,PennController,6,0,exercise,NULL,Scale,Scale,Choice,7,1696507278907,ezrc43WwonvTb2B4V7xidw,Нет,женский,21,NULL
1696507551,f440b9bd1e91ae3717bde7071734e8a1,PennController,6,0,exercise,NULL,PennController,6,_Trial_,End,1696507279216,ezrc43WwonvTb2B4V7xidw,Нет,женский,21,NULL
1696507551,f440b9bd1e91ae3717bde7071734e8a1,PennController,8,0,start_experiment,NULL,PennController,3,_Header_,End,1696507279218,ezrc43WwonvTb2B4V7xidw,Нет,женский,21,NULL
1696507551,f440b9bd1e91ae3717bde7071734e8a1,PennController,8,0,start_experiment,NULL,PennController,3,_Header_,Start,1696507279218,ezrc43WwonvTb2B4V7xidw,Нет,женский,21,NULL
1696507551,f440b9bd1e91ae3717bde7071734e8a1,PennController,8,0,start_experiment,NULL,PennController,3,_Trial_,Start,1696507279218,ezrc43WwonvTb2B4V7xidw,Нет,женский,21,NULL
1696507551,f440b9bd1e91ae3717bde7071734e8a1,PennController,8,0,start_experiment,NULL,PennController,3,_Trial_,End,1696507280686,ezrc43WwonvTb2B4V7xidw,Нет,женский,21,NULL
# 17. ITEM.
# 18. CONDITION.
# 19. TENSE.
# 20. TYPE.
# 21. FILLER_TYPE.
# 22. Comments.
1696507551,f440b9bd1e91ae3717bde7071734e8a1,PennController,15,0,experiment-item,NULL,PennController,14,_Header_,End,1696507280688,ezrc43WwonvTb2B4V7xidw,Нет,женский,21,poss-NPST-7,poss,NPST,item,,NULL
1696507551,f440b9bd1e91ae3717bde7071734e8a1,PennController,15,0,experiment-item,NULL,PennController,14,_Header_,Start,1696507280688,ezrc43WwonvTb2B4V7xidw,Нет,женский,21,poss-NPST-7,poss,NPST,item,,NULL
1696507551,f440b9bd1e91ae3717bde7071734e8a1,PennController,15,0,experiment-item,NULL,PennController,14,_Trial_,Start,1696507280688,ezrc43WwonvTb2B4V7xidw,Нет,женский,21,poss-NPST-7,poss,NPST,item,,NULL
1696507551,f440b9bd1e91ae3717bde7071734e8a1,PennController,15,0,experiment-item,NULL,Scale,Scale,Choice,7,1696507292152,ezrc43WwonvTb2B4V7xidw,Нет,женский,21,poss-NPST-7,poss,NPST,item,,NULL
1696507551,f440b9bd1e91ae3717bde7071734e8a1,PennController,15,0,experiment-item,NULL,PennController,14,_Trial_,End,1696507292453,ezrc43WwonvTb2B4V7xidw,Нет,женский,21,poss-NPST-7,poss,NPST,item,,NULL
1696507551,f440b9bd1e91ae3717bde7071734e8a1,PennController,21,0,experiment-filler,NULL,PennController,20,_Header_,End,1696507292454,ezrc43WwonvTb2B4V7xidw,Нет,женский,21,filler-bad-5,,,filler,bad,NULL
1696507551,f440b9bd1e91ae3717bde7071734e8a1,PennController,21,0,experiment-filler,NULL,PennController,20,_Header_,Start,1696507292454,ezrc43WwonvTb2B4V7xidw,Нет,женский,21,filler-bad-5,,,filler,bad,NULL
1696507551,f440b9bd1e91ae3717bde7071734e8a1,PennController,21,0,experiment-filler,NULL,PennController,20,_Trial_,Start,1696507292454,ezrc43WwonvTb2B4V7xidw,Нет,женский,21,filler-bad-5,,,filler,bad,NULL
1696507551,f440b9bd1e91ae3717bde7071734e8a1,PennController,21,0,experiment-filler,NULL,Scale,Scale,Choice,2,1696507304408,ezrc43WwonvTb2B4V7xidw,Нет,женский,21,filler-bad-5,,,filler,bad,NULL
1696507551,f440b9bd1e91ae3717bde7071734e8a1,PennController,21,0,experiment-filler,NULL,PennController,20,_Trial_,End,1696507304715,ezrc43WwonvTb2B4V7xidw,Нет,женский,21,filler-bad-5,,,filler,bad,NULL
1696507551,f440b9bd1e91ae3717bde7071734e8a1,PennController,11,0,experiment-item,NULL,PennController,10,_Header_,End,1696507304718,ezrc43WwonvTb2B4V7xidw,Нет,женский,21,poss-NPST-3,poss,NPST,item,,NULL
1696507551,f440b9bd1e91ae3717bde7071734e8a1,PennController,11,0,experiment-item,NULL,PennController,10,_Header_,Start,1696507304718,ezrc43WwonvTb2B4V7xidw,Нет,женский,21,poss-NPST-3,poss,NPST,item,,NULL
1696507551,f440b9bd1e91ae3717bde7071734e8a1,PennController,11,0,experiment-item,NULL,PennController,10,_Trial_,Start,1696507304718,ezrc43WwonvTb2B4V7xidw,Нет,женский,21,poss-NPST-3,poss,NPST,item,,NULL
1696507551,f440b9bd1e91ae3717bde7071734e8a1,PennController,11,0,experiment-item,NULL,Scale,Scale,Choice,7,1696507320234,ezrc43WwonvTb2B4V7xidw,Нет,женский,21,poss-NPST-3,poss,NPST,item,,NULL
1696507551,f440b9bd1e91ae3717bde7071734e8a1,PennController,11,0,experiment-item,NULL,PennController,10,_Trial_,End,1696507320538,ezrc43WwonvTb2B4V7xidw,Нет,женский,21,poss-NPST-3,poss,NPST,item,,NULL
1696507551,f440b9bd1e91ae3717bde7071734e8a1,PennController,23,0,experiment-filler,NULL,PennController,22,_Header_,End,1696507320543,ezrc43WwonvTb2B4V7xidw,Нет,женский,21,filler-bad-7,,,filler,bad,NULL
1696507551,f440b9bd1e91ae3717bde7071734e8a1,PennController,23,0,experiment-filler,NULL,PennController,22,_Header_,Start,1696507320543,ezrc43WwonvTb2B4V7xidw,Нет,женский,21,filler-bad-7,,,filler,bad,NULL
1696507551,f440b9bd1e91ae3717bde7071734e8a1,PennController,23,0,experiment-filler,NULL,PennController,22,_Trial_,Start,1696507320543,ezrc43WwonvTb2B4V7xidw,Нет,женский,21,filler-bad-7,,,filler,bad,NULL
1696507551,f440b9bd1e91ae3717bde7071734e8a1,PennController,23,0,experiment-filler,NULL,Scale,Scale,Choice,1,1696507341187,ezrc43WwonvTb2B4V7xidw,Нет,женский,21,filler-bad-7,,,filler,bad,NULL
1696507551,f440b9bd1e91ae3717bde7071734e8a1,PennController,23,0,experiment-filler,NULL,PennController,22,_Trial_,End,1696507341492,ezrc43WwonvTb2B4V7xidw,Нет,женский,21,filler-bad-7,,,filler,bad,NULL
1696507551,f440b9bd1e91ae3717bde7071734e8a1,PennController,9,0,experiment-item,NULL,PennController,8,_Header_,End,1696507341495,ezrc43WwonvTb2B4V7xidw,Нет,женский,21,poss-PST-1,poss,PST,item,,NULL
1696507551,f440b9bd1e91ae3717bde7071734e8a1,PennController,9,0,experiment-item,NULL,PennController,8,_Header_,Start,1696507341495,ezrc43WwonvTb2B4V7xidw,Нет,женский,21,poss-PST-1,poss,PST,item,,NULL
1696507551,f440b9bd1e91ae3717bde7071734e8a1,PennController,9,0,experiment-item,NULL,PennController,8,_Trial_,Start,1696507341495,ezrc43WwonvTb2B4V7xidw,Нет,женский,21,poss-PST-1,poss,PST,item,,NULL
1696507551,f440b9bd1e91ae3717bde7071734e8a1,PennController,9,0,experiment-item,NULL,Scale,Scale,Choice,7,1696507350915,ezrc43WwonvTb2B4V7xidw,Нет,женский,21,poss-PST-1,poss,PST,item,,NULL
1696507551,f440b9bd1e91ae3717bde7071734e8a1,PennController,9,0,experiment-item,NULL,PennController,8,_Trial_,End,1696507351220,ezrc43WwonvTb2B4V7xidw,Нет,женский,21,poss-PST-1,poss,PST,item,,NULL
1696507551,f440b9bd1e91ae3717bde7071734e8a1,PennController,24,0,experiment-filler,NULL,PennController,23,_Header_,Start,1696507351222,ezrc43WwonvTb2B4V7xidw,Нет,женский,21,filler-good-8,,,filler,good,NULL
1696507551,f440b9bd1e91ae3717bde7071734e8a1,PennController,24,0,experiment-filler,NULL,PennController,23,_Trial_,Start,1696507351222,ezrc43WwonvTb2B4V7xidw,Нет,женский,21,filler-good-8,,,filler,good,NULL
1696507551,f440b9bd1e91ae3717bde7071734e8a1,PennController,24,0,experiment-filler,NULL,PennController,23,_Header_,End,1696507351223,ezrc43WwonvTb2B4V7xidw,Нет,женский,21,filler-good-8,,,filler,good,NULL
1696507551,f440b9bd1e91ae3717bde7071734e8a1,PennController,24,0,experiment-filler,NULL,Scale,Scale,Choice,7,1696507361416,ezrc43WwonvTb2B4V7xidw,Нет,женский,21,filler-good-8,,,filler,good,NULL
1696507551,f440b9bd1e91ae3717bde7071734e8a1,PennController,24,0,experiment-filler,NULL,PennController,23,_Trial_,End,1696507361719,ezrc43WwonvTb2B4V7xidw,Нет,женский,21,filler-good-8,,,filler,good,NULL
1696507551,f440b9bd1e91ae3717bde7071734e8a1,PennController,14,0,experiment-item,NULL,PennController,13,_Header_,Start,1696507361721,ezrc43WwonvTb2B4V7xidw,Нет,женский,21,seem-PST-6,seem,PST,item,,NULL
1696507551,f440b9bd1e91ae3717bde7071734e8a1,PennController,14,0,experiment-item,NULL,PennController,13,_Trial_,Start,1696507361721,ezrc43WwonvTb2B4V7xidw,Нет,женский,21,seem-PST-6,seem,PST,item,,NULL
1696507551,f440b9bd1e91ae3717bde7071734e8a1,PennController,14,0,experiment-item,NULL,PennController,13,_Header_,End,1696507361722,ezrc43WwonvTb2B4V7xidw,Нет,женский,21,seem-PST-6,seem,PST,item,,NULL
1696507551,f440b9bd1e91ae3717bde7071734e8a1,PennController,14,0,experiment-item,NULL,Scale,Scale,Choice,7,1696507372171,ezrc43WwonvTb2B4V7xidw,Нет,женский,21,seem-PST-6,seem,PST,item,,NULL
1696507551,f440b9bd1e91ae3717bde7071734e8a1,PennController,14,0,experiment-item,NULL,PennController,13,_Trial_,End,1696507372476,ezrc43WwonvTb2B4V7xidw,Нет,женский,21,seem-PST-6,seem,PST,item,,NULL
1696507551,f440b9bd1e91ae3717bde7071734e8a1,PennController,20,0,experiment-filler,NULL,PennController,19,_Header_,Start,1696507372478,ezrc43WwonvTb2B4V7xidw,Нет,женский,21,filler-good-4,,,filler,good,NULL
1696507551,f440b9bd1e91ae3717bde7071734e8a1,PennController,20,0,experiment-filler,NULL,PennController,19,_Trial_,Start,1696507372478,ezrc43WwonvTb2B4V7xidw,Нет,женский,21,filler-good-4,,,filler,good,NULL
1696507551,f440b9bd1e91ae3717bde7071734e8a1,PennController,20,0,experiment-filler,NULL,PennController,19,_Header_,End,1696507372479,ezrc43WwonvTb2B4V7xidw,Нет,женский,21,filler-good-4,,,filler,good,NULL
1696507551,f440b9bd1e91ae3717bde7071734e8a1,PennController,20,0,experiment-filler,NULL,Scale,Scale,Choice,5,1696507384232,ezrc43WwonvTb2B4V7xidw,Нет,женский,21,filler-good-4,,,filler,good,NULL
1696507551,f440b9bd1e91ae3717bde7071734e8a1,PennController,20,0,experiment-filler,NULL,PennController,19,_Trial_,End,1696507384540,ezrc43WwonvTb2B4V7xidw,Нет,женский,21,filler-good-4,,,filler,good,NULL
1696507551,f440b9bd1e91ae3717bde7071734e8a1,PennController,16,0,experiment-item,NULL,PennController,15,_Header_,End,1696507384542,ezrc43WwonvTb2B4V7xidw,Нет,женский,21,seem-NPST-8,seem,NPST,item,,NULL
1696507551,f440b9bd1e91ae3717bde7071734e8a1,PennController,16,0,experiment-item,NULL,PennController,15,_Header_,Start,1696507384542,ezrc43WwonvTb2B4V7xidw,Нет,женский,21,seem-NPST-8,seem,NPST,item,,NULL
1696507551,f440b9bd1e91ae3717bde7071734e8a1,PennController,16,0,experiment-item,NULL,PennController,15,_Trial_,Start,1696507384542,ezrc43WwonvTb2B4V7xidw,Нет,женский,21,seem-NPST-8,seem,NPST,item,,NULL
1696507551,f440b9bd1e91ae3717bde7071734e8a1,PennController,16,0,experiment-item,NULL,Scale,Scale,Choice,7,1696507397596,ezrc43WwonvTb2B4V7xidw,Нет,женский,21,seem-NPST-8,seem,NPST,item,,NULL
1696507551,f440b9bd1e91ae3717bde7071734e8a1,PennController,16,0,experiment-item,NULL,PennController,15,_Trial_,End,1696507397901,ezrc43WwonvTb2B4V7xidw,Нет,женский,21,seem-NPST-8,seem,NPST,item,,NULL
1696507551,f440b9bd1e91ae3717bde7071734e8a1,PennController,17,0,experiment-filler,NULL,PennController,16,_Header_,End,1696507397903,ezrc43WwonvTb2B4V7xidw,Нет,женский,21,filler-bad-1,,,filler,bad,NULL
1696507551,f440b9bd1e91ae3717bde7071734e8a1,PennController,17,0,experiment-filler,NULL,PennController,16,_Header_,Start,1696507397903,ezrc43WwonvTb2B4V7xidw,Нет,женский,21,filler-bad-1,,,filler,bad,NULL
1696507551,f440b9bd1e91ae3717bde7071734e8a1,PennController,17,0,experiment-filler,NULL,PennController,16,_Trial_,Start,1696507397903,ezrc43WwonvTb2B4V7xidw,Нет,женский,21,filler-bad-1,,,filler,bad,NULL
1696507551,f440b9bd1e91ae3717bde7071734e8a1,PennController,17,0,experiment-filler,NULL,Scale,Scale,Choice,1,1696507402173,ezrc43WwonvTb2B4V7xidw,Нет,женский,21,filler-bad-1,,,filler,bad,NULL
1696507551,f440b9bd1e91ae3717bde7071734e8a1,PennController,17,0,experiment-filler,NULL,PennController,16,_Trial_,End,1696507402477,ezrc43WwonvTb2B4V7xidw,Нет,женский,21,filler-bad-1,,,filler,bad,NULL
1696507551,f440b9bd1e91ae3717bde7071734e8a1,PennController,10,0,experiment-item,NULL,PennController,9,_Header_,End,1696507402480,ezrc43WwonvTb2B4V7xidw,Нет,женский,21,seem-PST-2,seem,PST,item,,NULL
1696507551,f440b9bd1e91ae3717bde7071734e8a1,PennController,10,0,experiment-item,NULL,PennController,9,_Header_,Start,1696507402480,ezrc43WwonvTb2B4V7xidw,Нет,женский,21,seem-PST-2,seem,PST,item,,NULL
1696507551,f440b9bd1e91ae3717bde7071734e8a1,PennController,10,0,experiment-item,NULL,PennController,9,_Trial_,Start,1696507402480,ezrc43WwonvTb2B4V7xidw,Нет,женский,21,seem-PST-2,seem,PST,item,,NULL
1696507551,f440b9bd1e91ae3717bde7071734e8a1,PennController,10,0,experiment-item,NULL,Scale,Scale,Choice,7,1696507409446,ezrc43WwonvTb2B4V7xidw,Нет,женский,21,seem-PST-2,seem,PST,item,,NULL
1696507551,f440b9bd1e91ae3717bde7071734e8a1,PennController,10,0,experiment-item,NULL,PennController,9,_Trial_,End,1696507409750,ezrc43WwonvTb2B4V7xidw,Нет,женский,21,seem-PST-2,seem,PST,item,,NULL
1696507551,f440b9bd1e91ae3717bde7071734e8a1,PennController,22,0,experiment-filler,NULL,PennController,21,_Header_,End,1696507409752,ezrc43WwonvTb2B4V7xidw,Нет,женский,21,filler-good-6,,,filler,good,NULL
1696507551,f440b9bd1e91ae3717bde7071734e8a1,PennController,22,0,experiment-filler,NULL,PennController,21,_Header_,Start,1696507409752,ezrc43WwonvTb2B4V7xidw,Нет,женский,21,filler-good-6,,,filler,good,NULL
1696507551,f440b9bd1e91ae3717bde7071734e8a1,PennController,22,0,experiment-filler,NULL,PennController,21,_Trial_,Start,1696507409752,ezrc43WwonvTb2B4V7xidw,Нет,женский,21,filler-good-6,,,filler,good,NULL
1696507551,f440b9bd1e91ae3717bde7071734e8a1,PennController,22,0,experiment-filler,NULL,Scale,Scale,Choice,2,1696507420584,ezrc43WwonvTb2B4V7xidw,Нет,женский,21,filler-good-6,,,filler,good,NULL
1696507551,f440b9bd1e91ae3717bde7071734e8a1,PennController,22,0,experiment-filler,NULL,PennController,21,_Trial_,End,1696507420890,ezrc43WwonvTb2B4V7xidw,Нет,женский,21,filler-good-6,,,filler,good,NULL
1696507551,f440b9bd1e91ae3717bde7071734e8a1,PennController,13,0,experiment-item,NULL,PennController,12,_Header_,Start,1696507420892,ezrc43WwonvTb2B4V7xidw,Нет,женский,21,poss-PST-5,poss,PST,item,,NULL
1696507551,f440b9bd1e91ae3717bde7071734e8a1,PennController,13,0,experiment-item,NULL,PennController,12,_Trial_,Start,1696507420892,ezrc43WwonvTb2B4V7xidw,Нет,женский,21,poss-PST-5,poss,PST,item,,NULL
1696507551,f440b9bd1e91ae3717bde7071734e8a1,PennController,13,0,experiment-item,NULL,PennController,12,_Header_,End,1696507420893,ezrc43WwonvTb2B4V7xidw,Нет,женский,21,poss-PST-5,poss,PST,item,,NULL
1696507551,f440b9bd1e91ae3717bde7071734e8a1,PennController,13,0,experiment-item,NULL,Scale,Scale,Choice,5,1696507438903,ezrc43WwonvTb2B4V7xidw,Нет,женский,21,poss-PST-5,poss,PST,item,,NULL
1696507551,f440b9bd1e91ae3717bde7071734e8a1,PennController,13,0,experiment-item,NULL,PennController,12,_Trial_,End,1696507439210,ezrc43WwonvTb2B4V7xidw,Нет,женский,21,poss-PST-5,poss,PST,item,,NULL
1696507551,f440b9bd1e91ae3717bde7071734e8a1,PennController,18,0,experiment-filler,NULL,PennController,17,_Header_,End,1696507439213,ezrc43WwonvTb2B4V7xidw,Нет,женский,21,filler-good-2,,,filler,good,NULL
1696507551,f440b9bd1e91ae3717bde7071734e8a1,PennController,18,0,experiment-filler,NULL,PennController,17,_Header_,Start,1696507439213,ezrc43WwonvTb2B4V7xidw,Нет,женский,21,filler-good-2,,,filler,good,NULL
1696507551,f440b9bd1e91ae3717bde7071734e8a1,PennController,18,0,experiment-filler,NULL,PennController,17,_Trial_,Start,1696507439213,ezrc43WwonvTb2B4V7xidw,Нет,женский,21,filler-good-2,,,filler,good,NULL
1696507551,f440b9bd1e91ae3717bde7071734e8a1,PennController,18,0,experiment-filler,NULL,Scale,Scale,Choice,7,1696507445673,ezrc43WwonvTb2B4V7xidw,Нет,женский,21,filler-good-2,,,filler,good,NULL
1696507551,f440b9bd1e91ae3717bde7071734e8a1,PennController,18,0,experiment-filler,NULL,PennController,17,_Trial_,End,1696507445978,ezrc43WwonvTb2B4V7xidw,Нет,женский,21,filler-good-2,,,filler,good,NULL
1696507551,f440b9bd1e91ae3717bde7071734e8a1,PennController,12,0,experiment-item,NULL,PennController,11,_Header_,End,1696507445980,ezrc43WwonvTb2B4V7xidw,Нет,женский,21,seem-NPST-4,seem,NPST,item,,NULL
1696507551,f440b9bd1e91ae3717bde7071734e8a1,PennController,12,0,experiment-item,NULL,PennController,11,_Header_,Start,1696507445980,ezrc43WwonvTb2B4V7xidw,Нет,женский,21,seem-NPST-4,seem,NPST,item,,NULL
1696507551,f440b9bd1e91ae3717bde7071734e8a1,PennController,12,0,experiment-item,NULL,PennController,11,_Trial_,Start,1696507445980,ezrc43WwonvTb2B4V7xidw,Нет,женский,21,seem-NPST-4,seem,NPST,item,,NULL
1696507551,f440b9bd1e91ae3717bde7071734e8a1,PennController,12,0,experiment-item,NULL,Scale,Scale,Choice,2,1696507453611,ezrc43WwonvTb2B4V7xidw,Нет,женский,21,seem-NPST-4,seem,NPST,item,,NULL
1696507551,f440b9bd1e91ae3717bde7071734e8a1,PennController,12,0,experiment-item,NULL,PennController,11,_Trial_,End,1696507453916,ezrc43WwonvTb2B4V7xidw,Нет,женский,21,seem-NPST-4,seem,NPST,item,,NULL
1696507551,f440b9bd1e91ae3717bde7071734e8a1,PennController,19,0,experiment-filler,NULL,PennController,18,_Header_,End,1696507453917,ezrc43WwonvTb2B4V7xidw,Нет,женский,21,filler-bad-3,,,filler,bad,NULL
1696507551,f440b9bd1e91ae3717bde7071734e8a1,PennController,19,0,experiment-filler,NULL,PennController,18,_Header_,Start,1696507453917,ezrc43WwonvTb2B4V7xidw,Нет,женский,21,filler-bad-3,,,filler,bad,NULL
1696507551,f440b9bd1e91ae3717bde7071734e8a1,PennController,19,0,experiment-filler,NULL,PennController,18,_Trial_,Start,1696507453917,ezrc43WwonvTb2B4V7xidw,Нет,женский,21,filler-bad-3,,,filler,bad,NULL
1696507551,f440b9bd1e91ae3717bde7071734e8a1,PennController,19,0,experiment-filler,NULL,Scale,Scale,Choice,1,1696507469152,ezrc43WwonvTb2B4V7xidw,Нет,женский,21,filler-bad-3,,,filler,bad,NULL
1696507551,f440b9bd1e91ae3717bde7071734e8a1,PennController,19,0,experiment-filler,NULL,PennController,18,_Trial_,End,1696507469455,ezrc43WwonvTb2B4V7xidw,Нет,женский,21,filler-bad-3,,,filler,bad,NULL
#
# Results on Thu, 05 Oct 2023 12:05:54 GMT
# USER AGENT: Mozilla/5.0 (Macintosh; Intel Mac OS X 10_15_7) AppleWebKit/605.1.15 (KHTML, like Gecko) Version/15.6.1 Safari/605.1.15
# Design number was non-random = 9
#
# Columns below this comment are as follows:
# 1. Results reception time.
# 2. MD5 hash of participant's IP address.
# 3. Controller name.
# 4. Order number of item.
# 5. Inner element number.
# 6. Label.
# 7. Latin Square Group.
# 8. PennElementType.
# 9. PennElementName.
# 10. Parameter.
# 11. Value.
# 12. EventTime.
# 13. code.
# 14. linguist.
# 15. gender.
# 16. age.
# 17. Comments.
1696507554,57bb49c24ff5c9ff25a1a69529b34bbf,PennController,1,0,ethics,NULL,PennController,0,_Trial_,Start,1696507337716,QM3xc5wY3br80kwmv2xQ4Q,undefined,undefined,undefined,NULL
1696507554,57bb49c24ff5c9ff25a1a69529b34bbf,PennController,1,0,ethics,NULL,PennController,0,_Header_,Start,1696507337716,QM3xc5wY3br80kwmv2xQ4Q,undefined,undefined,undefined,NULL
1696507554,57bb49c24ff5c9ff25a1a69529b34bbf,PennController,1,0,ethics,NULL,PennController,0,_Header_,End,1696507337717,QM3xc5wY3br80kwmv2xQ4Q,undefined,undefined,undefined,NULL
1696507554,57bb49c24ff5c9ff25a1a69529b34bbf,PennController,1,0,ethics,NULL,PennController,0,_Trial_,End,1696507343419,QM3xc5wY3br80kwmv2xQ4Q,undefined,undefined,undefined,NULL
1696507554,57bb49c24ff5c9ff25a1a69529b34bbf,PennController,3,0,participants,NULL,PennController,1,_Trial_,Start,1696507343423,QM3xc5wY3br80kwmv2xQ4Q,Нет,мужской,20,NULL
1696507554,57bb49c24ff5c9ff25a1a69529b34bbf,PennController,3,0,participants,NULL,PennController,1,_Header_,Start,1696507343423,QM3xc5wY3br80kwmv2xQ4Q,Нет,мужской,20,NULL
1696507554,57bb49c24ff5c9ff25a1a69529b34bbf,PennController,3,0,participants,NULL,PennController,1,_Header_,End,1696507343423,QM3xc5wY3br80kwmv2xQ4Q,Нет,мужской,20,NULL
1696507554,57bb49c24ff5c9ff25a1a69529b34bbf,PennController,3,0,participants,NULL,TextInput,input_age,First,,1696507345891,QM3xc5wY3br80kwmv2xQ4Q,Нет,мужской,20,2
1696507554,57bb49c24ff5c9ff25a1a69529b34bbf,PennController,3,0,participants,NULL,TextInput,input_age,EnterReturn,20,1696507346872,QM3xc5wY3br80kwmv2xQ4Q,Нет,мужской,20,NULL
1696507554,57bb49c24ff5c9ff25a1a69529b34bbf,PennController,3,0,participants,NULL,Scale,input_gender,Choice,мужской,1696507349098,QM3xc5wY3br80kwmv2xQ4Q,Нет,мужской,20,NULL
1696507554,57bb49c24ff5c9ff25a1a69529b34bbf,PennController,3,0,participants,NULL,Scale,input_linguist,Choice,Нет,1696507354048,QM3xc5wY3br80kwmv2xQ4Q,Нет,мужской,20,NULL
1696507554,57bb49c24ff5c9ff25a1a69529b34bbf,PennController,3,0,participants,NULL,TextInput,input_age,Final,20,1696507355051,QM3xc5wY3br80kwmv2xQ4Q,Нет,мужской,20,NULL
1696507554,57bb49c24ff5c9ff25a1a69529b34bbf,PennController,3,0,participants,NULL,PennController,1,_Trial_,End,1696507355052,QM3xc5wY3br80kwmv2xQ4Q,Нет,мужской,20,NULL
1696507554,57bb49c24ff5c9ff25a1a69529b34bbf,PennController,4,0,instructions,NULL,PennController,2,_Trial_,Start,1696507355054,QM3xc5wY3br80kwmv2xQ4Q,Нет,мужской,20,NULL
1696507554,57bb49c24ff5c9ff25a1a69529b34bbf,PennController,4,0,instructions,NULL,PennController,2,_Header_,Start,1696507355054,QM3xc5wY3br80kwmv2xQ4Q,Нет,мужской,20,NULL
1696507554,57bb49c24ff5c9ff25a1a69529b34bbf,PennController,4,0,instructions,NULL,PennController,2,_Header_,End,1696507355054,QM3xc5wY3br80kwmv2xQ4Q,Нет,мужской,20,NULL
1696507554,57bb49c24ff5c9ff25a1a69529b34bbf,PennController,4,0,instructions,NULL,PennController,2,_Trial_,End,1696507406115,QM3xc5wY3br80kwmv2xQ4Q,Нет,мужской,20,NULL
1696507554,57bb49c24ff5c9ff25a1a69529b34bbf,PennController,5,0,exercise,NULL,PennController,5,_Trial_,Start,1696507406117,QM3xc5wY3br80kwmv2xQ4Q,Нет,мужской,20,NULL
1696507554,57bb49c24ff5c9ff25a1a69529b34bbf,PennController,5,0,exercise,NULL,PennController,5,_Header_,Start,1696507406117,QM3xc5wY3br80kwmv2xQ4Q,Нет,мужской,20,NULL
1696507554,57bb49c24ff5c9ff25a1a69529b34bbf,PennController,5,0,exercise,NULL,PennController,5,_Header_,End,1696507406117,QM3xc5wY3br80kwmv2xQ4Q,Нет,мужской,20,NULL
1696507554,57bb49c24ff5c9ff25a1a69529b34bbf,PennController,5,0,exercise,NULL,Scale,Scale,Choice,1,1696507413312,QM3xc5wY3br80kwmv2xQ4Q,Нет,мужской,20,NULL
1696507554,57bb49c24ff5c9ff25a1a69529b34bbf,PennController,5,0,exercise,NULL,PennController,5,_Trial_,End,1696507413616,QM3xc5wY3br80kwmv2xQ4Q,Нет,мужской,20,NULL
1696507554,57bb49c24ff5c9ff25a1a69529b34bbf,PennController,7,0,exercise,NULL,PennController,7,_Trial_,Start,1696507413618,QM3xc5wY3br80kwmv2xQ4Q,Нет,мужской,20,NULL
1696507554,57bb49c24ff5c9ff25a1a69529b34bbf,PennController,7,0,exercise,NULL,PennController,7,_Header_,Start,1696507413618,QM3xc5wY3br80kwmv2xQ4Q,Нет,мужской,20,NULL
1696507554,57bb49c24ff5c9ff25a1a69529b34bbf,PennController,7,0,exercise,NULL,PennController,7,_Header_,End,1696507413618,QM3xc5wY3br80kwmv2xQ4Q,Нет,мужской,20,NULL
1696507554,57bb49c24ff5c9ff25a1a69529b34bbf,PennController,7,0,exercise,NULL,Scale,Scale,Choice,7,1696507418577,QM3xc5wY3br80kwmv2xQ4Q,Нет,мужской,20,NULL
1696507554,57bb49c24ff5c9ff25a1a69529b34bbf,PennController,7,0,exercise,NULL,PennController,7,_Trial_,End,1696507418880,QM3xc5wY3br80kwmv2xQ4Q,Нет,мужской,20,NULL
1696507554,57bb49c24ff5c9ff25a1a69529b34bbf,PennController,6,0,exercise,NULL,PennController,6,_Trial_,Start,1696507418881,QM3xc5wY3br80kwmv2xQ4Q,Нет,мужской,20,NULL
1696507554,57bb49c24ff5c9ff25a1a69529b34bbf,PennController,6,0,exercise,NULL,PennController,6,_Header_,Start,1696507418881,QM3xc5wY3br80kwmv2xQ4Q,Нет,мужской,20,NULL
1696507554,57bb49c24ff5c9ff25a1a69529b34bbf,PennController,6,0,exercise,NULL,PennController,6,_Header_,End,1696507418881,QM3xc5wY3br80kwmv2xQ4Q,Нет,мужской,20,NULL
1696507554,57bb49c24ff5c9ff25a1a69529b34bbf,PennController,6,0,exercise,NULL,Scale,Scale,Choice,7,1696507426544,QM3xc5wY3br80kwmv2xQ4Q,Нет,мужской,20,NULL
1696507554,57bb49c24ff5c9ff25a1a69529b34bbf,PennController,6,0,exercise,NULL,PennController,6,_Trial_,End,1696507426849,QM3xc5wY3br80kwmv2xQ4Q,Нет,мужской,20,NULL
1696507554,57bb49c24ff5c9ff25a1a69529b34bbf,PennController,8,0,start_experiment,NULL,PennController,3,_Trial_,Start,1696507426851,QM3xc5wY3br80kwmv2xQ4Q,Нет,мужской,20,NULL
1696507554,57bb49c24ff5c9ff25a1a69529b34bbf,PennController,8,0,start_experiment,NULL,PennController,3,_Header_,Start,1696507426851,QM3xc5wY3br80kwmv2xQ4Q,Нет,мужской,20,NULL
1696507554,57bb49c24ff5c9ff25a1a69529b34bbf,PennController,8,0,start_experiment,NULL,PennController,3,_Header_,End,1696507426851,QM3xc5wY3br80kwmv2xQ4Q,Нет,мужской,20,NULL
1696507554,57bb49c24ff5c9ff25a1a69529b34bbf,PennController,8,0,start_experiment,NULL,PennController,3,_Trial_,End,1696507428294,QM3xc5wY3br80kwmv2xQ4Q,Нет,мужской,20,NULL
# 17. ITEM.
# 18. CONDITION.
# 19. TENSE.
# 20. TYPE.
# 21. FILLER_TYPE.
# 22. Comments.
1696507554,57bb49c24ff5c9ff25a1a69529b34bbf,PennController,20,0,experiment-filler,NULL,PennController,19,_Trial_,Start,1696507428296,QM3xc5wY3br80kwmv2xQ4Q,Нет,мужской,20,filler-good-4,,,filler,good,NULL
1696507554,57bb49c24ff5c9ff25a1a69529b34bbf,PennController,20,0,experiment-filler,NULL,PennController,19,_Header_,Start,1696507428296,QM3xc5wY3br80kwmv2xQ4Q,Нет,мужской,20,filler-good-4,,,filler,good,NULL
1696507554,57bb49c24ff5c9ff25a1a69529b34bbf,PennController,20,0,experiment-filler,NULL,PennController,19,_Header_,End,1696507428296,QM3xc5wY3br80kwmv2xQ4Q,Нет,мужской,20,filler-good-4,,,filler,good,NULL
1696507554,57bb49c24ff5c9ff25a1a69529b34bbf,PennController,20,0,experiment-filler,NULL,Scale,Scale,Choice,5,1696507434927,QM3xc5wY3br80kwmv2xQ4Q,Нет,мужской,20,filler-good-4,,,filler,good,NULL
1696507554,57bb49c24ff5c9ff25a1a69529b34bbf,PennController,20,0,experiment-filler,NULL,PennController,19,_Trial_,End,1696507435230,QM3xc5wY3br80kwmv2xQ4Q,Нет,мужской,20,filler-good-4,,,filler,good,NULL
1696507554,57bb49c24ff5c9ff25a1a69529b34bbf,PennController,16,0,experiment-item,NULL,PennController,15,_Trial_,Start,1696507435232,QM3xc5wY3br80kwmv2xQ4Q,Нет,мужской,20,seem-PST-8,seem,PST,item,,NULL
1696507554,57bb49c24ff5c9ff25a1a69529b34bbf,PennController,16,0,experiment-item,NULL,PennController,15,_Header_,Start,1696507435232,QM3xc5wY3br80kwmv2xQ4Q,Нет,мужской,20,seem-PST-8,seem,PST,item,,NULL
1696507554,57bb49c24ff5c9ff25a1a69529b34bbf,PennController,16,0,experiment-item,NULL,PennController,15,_Header_,End,1696507435232,QM3xc5wY3br80kwmv2xQ4Q,Нет,мужской,20,seem-PST-8,seem,PST,item,,NULL
1696507554,57bb49c24ff5c9ff25a1a69529b34bbf,PennController,16,0,experiment-item,NULL,Scale,Scale,Choice,5,1696507442076,QM3xc5wY3br80kwmv2xQ4Q,Нет,мужской,20,seem-PST-8,seem,PST,item,,NULL
1696507554,57bb49c24ff5c9ff25a1a69529b34bbf,PennController,16,0,experiment-item,NULL,PennController,15,_Trial_,End,1696507442381,QM3xc5wY3br80kwmv2xQ4Q,Нет,мужской,20,seem-PST-8,seem,PST,item,,NULL
1696507554,57bb49c24ff5c9ff25a1a69529b34bbf,PennController,24,0,experiment-filler,NULL,PennController,23,_Trial_,Start,1696507442384,QM3xc5wY3br80kwmv2xQ4Q,Нет,мужской,20,filler-good-8,,,filler,good,NULL
1696507554,57bb49c24ff5c9ff25a1a69529b34bbf,PennController,24,0,experiment-filler,NULL,PennController,23,_Header_,Start,1696507442384,QM3xc5wY3br80kwmv2xQ4Q,Нет,мужской,20,filler-good-8,,,filler,good,NULL
1696507554,57bb49c24ff5c9ff25a1a69529b34bbf,PennController,24,0,experiment-filler,NULL,PennController,23,_Header_,End,1696507442384,QM3xc5wY3br80kwmv2xQ4Q,Нет,мужской,20,filler-good-8,,,filler,good,NULL
1696507554,57bb49c24ff5c9ff25a1a69529b34bbf,PennController,24,0,experiment-filler,NULL,Scale,Scale,Choice,6,1696507454726,QM3xc5wY3br80kwmv2xQ4Q,Нет,мужской,20,filler-good-8,,,filler,good,NULL
1696507554,57bb49c24ff5c9ff25a1a69529b34bbf,PennController,24,0,experiment-filler,NULL,PennController,23,_Trial_,End,1696507455027,QM3xc5wY3br80kwmv2xQ4Q,Нет,мужской,20,filler-good-8,,,filler,good,NULL
1696507554,57bb49c24ff5c9ff25a1a69529b34bbf,PennController,14,0,experiment-item,NULL,PennController,13,_Trial_,Start,1696507455029,QM3xc5wY3br80kwmv2xQ4Q,Нет,мужской,20,seem-NPST-6,seem,NPST,item,,NULL
1696507554,57bb49c24ff5c9ff25a1a69529b34bbf,PennController,14,0,experiment-item,NULL,PennController,13,_Header_,Start,1696507455029,QM3xc5wY3br80kwmv2xQ4Q,Нет,мужской,20,seem-NPST-6,seem,NPST,item,,NULL
1696507554,57bb49c24ff5c9ff25a1a69529b34bbf,PennController,14,0,experiment-item,NULL,PennController,13,_Header_,End,1696507455030,QM3xc5wY3br80kwmv2xQ4Q,Нет,мужской,20,seem-NPST-6,seem,NPST,item,,NULL
1696507554,57bb49c24ff5c9ff25a1a69529b34bbf,PennController,14,0,experiment-item,NULL,Scale,Scale,Choice,6,1696507467774,QM3xc5wY3br80kwmv2xQ4Q,Нет,мужской,20,seem-NPST-6,seem,NPST,item,,NULL
1696507554,57bb49c24ff5c9ff25a1a69529b34bbf,PennController,14,0,experiment-item,NULL,PennController,13,_Trial_,End,1696507468079,QM3xc5wY3br80kwmv2xQ4Q,Нет,мужской,20,seem-NPST-6,seem,NPST,item,,NULL
1696507554,57bb49c24ff5c9ff25a1a69529b34bbf,PennController,17,0,experiment-filler,NULL,PennController,16,_Trial_,Start,1696507468080,QM3xc5wY3br80kwmv2xQ4Q,Нет,мужской,20,filler-bad-1,,,filler,bad,NULL
1696507554,57bb49c24ff5c9ff25a1a69529b34bbf,PennController,17,0,experiment-filler,NULL,PennController,16,_Header_,Start,1696507468080,QM3xc5wY3br80kwmv2xQ4Q,Нет,мужской,20,filler-bad-1,,,filler,bad,NULL
1696507554,57bb49c24ff5c9ff25a1a69529b34bbf,PennController,17,0,experiment-filler,NULL,PennController,16,_Header_,End,1696507468080,QM3xc5wY3br80kwmv2xQ4Q,Нет,мужской,20,filler-bad-1,,,filler,bad,NULL
1696507554,57bb49c24ff5c9ff25a1a69529b34bbf,PennController,17,0,experiment-filler,NULL,Scale,Scale,Choice,5,1696507472158,QM3xc5wY3br80kwmv2xQ4Q,Нет,мужской,20,filler-bad-1,,,filler,bad,NULL
1696507554,57bb49c24ff5c9ff25a1a69529b34bbf,PennController,17,0,experiment-filler,NULL,PennController,16,_Trial_,End,1696507472461,QM3xc5wY3br80kwmv2xQ4Q,Нет,мужской,20,filler-bad-1,,,filler,bad,NULL
1696507554,57bb49c24ff5c9ff25a1a69529b34bbf,PennController,9,0,experiment-item,NULL,PennController,8,_Trial_,Start,1696507472463,QM3xc5wY3br80kwmv2xQ4Q,Нет,мужской,20,poss-NPST-1,poss,NPST,item,,NULL
1696507554,57bb49c24ff5c9ff25a1a69529b34bbf,PennController,9,0,experiment-item,NULL,PennController,8,_Header_,Start,1696507472463,QM3xc5wY3br80kwmv2xQ4Q,Нет,мужской,20,poss-NPST-1,poss,NPST,item,,NULL
1696507554,57bb49c24ff5c9ff25a1a69529b34bbf,PennController,9,0,experiment-item,NULL,PennController,8,_Header_,End,1696507472463,QM3xc5wY3br80kwmv2xQ4Q,Нет,мужской,20,poss-NPST-1,poss,NPST,item,,NULL
1696507554,57bb49c24ff5c9ff25a1a69529b34bbf,PennController,9,0,experiment-item,NULL,Scale,Scale,Choice,2,1696507484540,QM3xc5wY3br80kwmv2xQ4Q,Нет,мужской,20,poss-NPST-1,poss,NPST,item,,NULL
1696507554,57bb49c24ff5c9ff25a1a69529b34bbf,PennController,9,0,experiment-item,NULL,PennController,8,_Trial_,End,1696507484842,QM3xc5wY3br80kwmv2xQ4Q,Нет,мужской,20,poss-NPST-1,poss,NPST,item,,NULL
1696507554,57bb49c24ff5c9ff25a1a69529b34bbf,PennController,19,0,experiment-filler,NULL,PennController,18,_Trial_,Start,1696507484843,QM3xc5wY3br80kwmv2xQ4Q,Нет,мужской,20,filler-bad-3,,,filler,bad,NULL
1696507554,57bb49c24ff5c9ff25a1a69529b34bbf,PennController,19,0,experiment-filler,NULL,PennController,18,_Header_,Start,1696507484843,QM3xc5wY3br80kwmv2xQ4Q,Нет,мужской,20,filler-bad-3,,,filler,bad,NULL
1696507554,57bb49c24ff5c9ff25a1a69529b34bbf,PennController,19,0,experiment-filler,NULL,PennController,18,_Header_,End,1696507484843,QM3xc5wY3br80kwmv2xQ4Q,Нет,мужской,20,filler-bad-3,,,filler,bad,NULL
1696507554,57bb49c24ff5c9ff25a1a69529b34bbf,PennController,19,0,experiment-filler,NULL,Scale,Scale,Choice,1,1696507491373,QM3xc5wY3br80kwmv2xQ4Q,Нет,мужской,20,filler-bad-3,,,filler,bad,NULL
1696507554,57bb49c24ff5c9ff25a1a69529b34bbf,PennController,19,0,experiment-filler,NULL,PennController,18,_Trial_,End,1696507491675,QM3xc5wY3br80kwmv2xQ4Q,Нет,мужской,20,filler-bad-3,,,filler,bad,NULL
1696507554,57bb49c24ff5c9ff25a1a69529b34bbf,PennController,12,0,experiment-item,NULL,PennController,11,_Trial_,Start,1696507491676,QM3xc5wY3br80kwmv2xQ4Q,Нет,мужской,20,seem-PST-4,seem,PST,item,,NULL
1696507554,57bb49c24ff5c9ff25a1a69529b34bbf,PennController,12,0,experiment-item,NULL,PennController,11,_Header_,Start,1696507491676,QM3xc5wY3br80kwmv2xQ4Q,Нет,мужской,20,seem-PST-4,seem,PST,item,,NULL
1696507554,57bb49c24ff5c9ff25a1a69529b34bbf,PennController,12,0,experiment-item,NULL,PennController,11,_Header_,End,1696507491676,QM3xc5wY3br80kwmv2xQ4Q,Нет,мужской,20,seem-PST-4,seem,PST,item,,NULL
1696507554,57bb49c24ff5c9ff25a1a69529b34bbf,PennController,12,0,experiment-item,NULL,Scale,Scale,Choice,3,1696507499823,QM3xc5wY3br80kwmv2xQ4Q,Нет,мужской,20,seem-PST-4,seem,PST,item,,NULL
1696507554,57bb49c24ff5c9ff25a1a69529b34bbf,PennController,12,0,experiment-item,NULL,PennController,11,_Trial_,End,1696507500125,QM3xc5wY3br80kwmv2xQ4Q,Нет,мужской,20,seem-PST-4,seem,PST,item,,NULL
1696507554,57bb49c24ff5c9ff25a1a69529b34bbf,PennController,22,0,experiment-filler,NULL,PennController,21,_Trial_,Start,1696507500126,QM3xc5wY3br80kwmv2xQ4Q,Нет,мужской,20,filler-good-6,,,filler,good,NULL
1696507554,57bb49c24ff5c9ff25a1a69529b34bbf,PennController,22,0,experiment-filler,NULL,PennController,21,_Header_,Start,1696507500126,QM3xc5wY3br80kwmv2xQ4Q,Нет,мужской,20,filler-good-6,,,filler,good,NULL
1696507554,57bb49c24ff5c9ff25a1a69529b34bbf,PennController,22,0,experiment-filler,NULL,PennController,21,_Header_,End,1696507500127,QM3xc5wY3br80kwmv2xQ4Q,Нет,мужской,20,filler-good-6,,,filler,good,NULL
1696507554,57bb49c24ff5c9ff25a1a69529b34bbf,PennController,22,0,experiment-filler,NULL,Scale,Scale,Choice,1,1696507503473,QM3xc5wY3br80kwmv2xQ4Q,Нет,мужской,20,filler-good-6,,,filler,good,NULL
1696507554,57bb49c24ff5c9ff25a1a69529b34bbf,PennController,22,0,experiment-filler,NULL,PennController,21,_Trial_,End,1696507503778,QM3xc5wY3br80kwmv2xQ4Q,Нет,мужской,20,filler-good-6,,,filler,good,NULL
1696507554,57bb49c24ff5c9ff25a1a69529b34bbf,PennController,11,0,experiment-item,NULL,PennController,10,_Trial_,Start,1696507503780,QM3xc5wY3br80kwmv2xQ4Q,Нет,мужской,20,poss-PST-3,poss,PST,item,,NULL
1696507554,57bb49c24ff5c9ff25a1a69529b34bbf,PennController,11,0,experiment-item,NULL,PennController,10,_Header_,Start,1696507503780,QM3xc5wY3br80kwmv2xQ4Q,Нет,мужской,20,poss-PST-3,poss,PST,item,,NULL
1696507554,57bb49c24ff5c9ff25a1a69529b34bbf,PennController,11,0,experiment-item,NULL,PennController,10,_Header_,End,1696507503780,QM3xc5wY3br80kwmv2xQ4Q,Нет,мужской,20,poss-PST-3,poss,PST,item,,NULL
1696507554,57bb49c24ff5c9ff25a1a69529b34bbf,PennController,11,0,experiment-item,NULL,Scale,Scale,Choice,4,1696507511621,QM3xc5wY3br80kwmv2xQ4Q,Нет,мужской,20,poss-PST-3,poss,PST,item,,NULL
1696507554,57bb49c24ff5c9ff25a1a69529b34bbf,PennController,11,0,experiment-item,NULL,PennController,10,_Trial_,End,1696507511926,QM3xc5wY3br80kwmv2xQ4Q,Нет,мужской,20,poss-PST-3,poss,PST,item,,NULL
1696507554,57bb49c24ff5c9ff25a1a69529b34bbf,PennController,21,0,experiment-filler,NULL,PennController,20,_Trial_,Start,1696507511928,QM3xc5wY3br80kwmv2xQ4Q,Нет,мужской,20,filler-bad-5,,,filler,bad,NULL
1696507554,57bb49c24ff5c9ff25a1a69529b34bbf,PennController,21,0,experiment-filler,NULL,PennController,20,_Header_,Start,1696507511928,QM3xc5wY3br80kwmv2xQ4Q,Нет,мужской,20,filler-bad-5,,,filler,bad,NULL
1696507554,57bb49c24ff5c9ff25a1a69529b34bbf,PennController,21,0,experiment-filler,NULL,PennController,20,_Header_,End,1696507511928,QM3xc5wY3br80kwmv2xQ4Q,Нет,мужской,20,filler-bad-5,,,filler,bad,NULL
1696507554,57bb49c24ff5c9ff25a1a69529b34bbf,PennController,21,0,experiment-filler,NULL,Scale,Scale,Choice,2,1696507515222,QM3xc5wY3br80kwmv2xQ4Q,Нет,мужской,20,filler-bad-5,,,filler,bad,NULL
1696507554,57bb49c24ff5c9ff25a1a69529b34bbf,PennController,21,0,experiment-filler,NULL,PennController,20,_Trial_,End,1696507515523,QM3xc5wY3br80kwmv2xQ4Q,Нет,мужской,20,filler-bad-5,,,filler,bad,NULL
1696507554,57bb49c24ff5c9ff25a1a69529b34bbf,PennController,13,0,experiment-item,NULL,PennController,12,_Trial_,Start,1696507515525,QM3xc5wY3br80kwmv2xQ4Q,Нет,мужской,20,poss-NPST-5,poss,NPST,item,,NULL
1696507554,57bb49c24ff5c9ff25a1a69529b34bbf,PennController,13,0,experiment-item,NULL,PennController,12,_Header_,Start,1696507515525,QM3xc5wY3br80kwmv2xQ4Q,Нет,мужской,20,poss-NPST-5,poss,NPST,item,,NULL
1696507554,57bb49c24ff5c9ff25a1a69529b34bbf,PennController,13,0,experiment-item,NULL,PennController,12,_Header_,End,1696507515525,QM3xc5wY3br80kwmv2xQ4Q,Нет,мужской,20,poss-NPST-5,poss,NPST,item,,NULL
1696507554,57bb49c24ff5c9ff25a1a69529b34bbf,PennController,13,0,experiment-item,NULL,Scale,Scale,Choice,5,1696507521888,QM3xc5wY3br80kwmv2xQ4Q,Нет,мужской,20,poss-NPST-5,poss,NPST,item,,NULL
1696507554,57bb49c24ff5c9ff25a1a69529b34bbf,PennController,13,0,experiment-item,NULL,PennController,12,_Trial_,End,1696507522192,QM3xc5wY3br80kwmv2xQ4Q,Нет,мужской,20,poss-NPST-5,poss,NPST,item,,NULL
1696507554,57bb49c24ff5c9ff25a1a69529b34bbf,PennController,23,0,experiment-filler,NULL,PennController,22,_Trial_,Start,1696507522193,QM3xc5wY3br80kwmv2xQ4Q,Нет,мужской,20,filler-bad-7,,,filler,bad,NULL
1696507554,57bb49c24ff5c9ff25a1a69529b34bbf,PennController,23,0,experiment-filler,NULL,PennController,22,_Header_,Start,1696507522193,QM3xc5wY3br80kwmv2xQ4Q,Нет,мужской,20,filler-bad-7,,,filler,bad,NULL
1696507554,57bb49c24ff5c9ff25a1a69529b34bbf,PennController,23,0,experiment-filler,NULL,PennController,22,_Header_,End,1696507522193,QM3xc5wY3br80kwmv2xQ4Q,Нет,мужской,20,filler-bad-7,,,filler,bad,NULL
1696507554,57bb49c24ff5c9ff25a1a69529b34bbf,PennController,23,0,experiment-filler,NULL,Scale,Scale,Choice,3,1696507526138,QM3xc5wY3br80kwmv2xQ4Q,Нет,мужской,20,filler-bad-7,,,filler,bad,NULL
1696507554,57bb49c24ff5c9ff25a1a69529b34bbf,PennController,23,0,experiment-filler,NULL,PennController,22,_Trial_,End,1696507526443,QM3xc5wY3br80kwmv2xQ4Q,Нет,мужской,20,filler-bad-7,,,filler,bad,NULL
1696507554,57bb49c24ff5c9ff25a1a69529b34bbf,PennController,10,0,experiment-item,NULL,PennController,9,_Trial_,Start,1696507526444,QM3xc5wY3br80kwmv2xQ4Q,Нет,мужской,20,seem-NPST-2,seem,NPST,item,,NULL
1696507554,57bb49c24ff5c9ff25a1a69529b34bbf,PennController,10,0,experiment-item,NULL,PennController,9,_Header_,Start,1696507526444,QM3xc5wY3br80kwmv2xQ4Q,Нет,мужской,20,seem-NPST-2,seem,NPST,item,,NULL
1696507554,57bb49c24ff5c9ff25a1a69529b34bbf,PennController,10,0,experiment-item,NULL,PennController,9,_Header_,End,1696507526445,QM3xc5wY3br80kwmv2xQ4Q,Нет,мужской,20,seem-NPST-2,seem,NPST,item,,NULL
1696507554,57bb49c24ff5c9ff25a1a69529b34bbf,PennController,10,0,experiment-item,NULL,Scale,Scale,Choice,5,1696507532687,QM3xc5wY3br80kwmv2xQ4Q,Нет,мужской,20,seem-NPST-2,seem,NPST,item,,NULL
1696507554,57bb49c24ff5c9ff25a1a69529b34bbf,PennController,10,0,experiment-item,NULL,PennController,9,_Trial_,End,1696507532990,QM3xc5wY3br80kwmv2xQ4Q,Нет,мужской,20,seem-NPST-2,seem,NPST,item,,NULL
1696507554,57bb49c24ff5c9ff25a1a69529b34bbf,PennController,18,0,experiment-filler,NULL,PennController,17,_Trial_,Start,1696507532991,QM3xc5wY3br80kwmv2xQ4Q,Нет,мужской,20,filler-good-2,,,filler,good,NULL
1696507554,57bb49c24ff5c9ff25a1a69529b34bbf,PennController,18,0,experiment-filler,NULL,PennController,17,_Header_,Start,1696507532991,QM3xc5wY3br80kwmv2xQ4Q,Нет,мужской,20,filler-good-2,,,filler,good,NULL
1696507554,57bb49c24ff5c9ff25a1a69529b34bbf,PennController,18,0,experiment-filler,NULL,PennController,17,_Header_,End,1696507532991,QM3xc5wY3br80kwmv2xQ4Q,Нет,мужской,20,filler-good-2,,,filler,good,NULL
1696507554,57bb49c24ff5c9ff25a1a69529b34bbf,PennController,18,0,experiment-filler,NULL,Scale,Scale,Choice,5,1696507535921,QM3xc5wY3br80kwmv2xQ4Q,Нет,мужской,20,filler-good-2,,,filler,good,NULL
1696507554,57bb49c24ff5c9ff25a1a69529b34bbf,PennController,18,0,experiment-filler,NULL,PennController,17,_Trial_,End,1696507536226,QM3xc5wY3br80kwmv2xQ4Q,Нет,мужской,20,filler-good-2,,,filler,good,NULL
1696507554,57bb49c24ff5c9ff25a1a69529b34bbf,PennController,15,0,experiment-item,NULL,PennController,14,_Trial_,Start,1696507536227,QM3xc5wY3br80kwmv2xQ4Q,Нет,мужской,20,poss-PST-7,poss,PST,item,,NULL
1696507554,57bb49c24ff5c9ff25a1a69529b34bbf,PennController,15,0,experiment-item,NULL,PennController,14,_Header_,Start,1696507536227,QM3xc5wY3br80kwmv2xQ4Q,Нет,мужской,20,poss-PST-7,poss,PST,item,,NULL
1696507554,57bb49c24ff5c9ff25a1a69529b34bbf,PennController,15,0,experiment-item,NULL,PennController,14,_Header_,End,1696507536227,QM3xc5wY3br80kwmv2xQ4Q,Нет,мужской,20,poss-PST-7,poss,PST,item,,NULL
1696507554,57bb49c24ff5c9ff25a1a69529b34bbf,PennController,15,0,experiment-item,NULL,Scale,Scale,Choice,5,1696507551253,QM3xc5wY3br80kwmv2xQ4Q,Нет,мужской,20,poss-PST-7,poss,PST,item,,NULL
1696507554,57bb49c24ff5c9ff25a1a69529b34bbf,PennController,15,0,experiment-item,NULL,PennController,14,_Trial_,End,1696507551555,QM3xc5wY3br80kwmv2xQ4Q,Нет,мужской,20,poss-PST-7,poss,PST,item,,NULL
#
# Results on Thu, 05 Oct 2023 12:11:58 GMT
# USER AGENT: Mozilla/5.0 (Windows NT 10.0; Win64; x64) AppleWebKit/537.36 (KHTML, like Gecko) Chrome/115.0.0.0 Safari/537.36 OPR/101.0.0.0 (Edition Yx 05)
# Design number was non-random = 11
#
# Columns below this comment are as follows:
# 1. Results reception time.
# 2. MD5 hash of participant's IP address.
# 3. Controller name.
# 4. Order number of item.
# 5. Inner element number.
# 6. Label.
# 7. Latin Square Group.
# 8. PennElementType.
# 9. PennElementName.
# 10. Parameter.
# 11. Value.
# 12. EventTime.
# 13. code.
# 14. linguist.
# 15. gender.
# 16. age.
# 17. Comments.
1696507918,3eca63f46439f16b2259dc08fec39fd5,PennController,1,0,ethics,NULL,PennController,0,_Header_,End,1696507650794,pvGN9NXppOqCUMel4AtsfQ,undefined,undefined,undefined,NULL
1696507918,3eca63f46439f16b2259dc08fec39fd5,PennController,1,0,ethics,NULL,PennController,0,_Header_,Start,1696507650794,pvGN9NXppOqCUMel4AtsfQ,undefined,undefined,undefined,NULL
1696507918,3eca63f46439f16b2259dc08fec39fd5,PennController,1,0,ethics,NULL,PennController,0,_Trial_,Start,1696507650794,pvGN9NXppOqCUMel4AtsfQ,undefined,undefined,undefined,NULL
1696507918,3eca63f46439f16b2259dc08fec39fd5,PennController,1,0,ethics,NULL,PennController,0,_Trial_,End,1696507661270,pvGN9NXppOqCUMel4AtsfQ,undefined,undefined,undefined,NULL
1696507918,3eca63f46439f16b2259dc08fec39fd5,PennController,3,0,participants,NULL,PennController,1,_Trial_,Start,1696507661274,pvGN9NXppOqCUMel4AtsfQ,Да,мужской,23,NULL
1696507918,3eca63f46439f16b2259dc08fec39fd5,PennController,3,0,participants,NULL,PennController,1,_Header_,End,1696507661275,pvGN9NXppOqCUMel4AtsfQ,Да,мужской,23,NULL
1696507918,3eca63f46439f16b2259dc08fec39fd5,PennController,3,0,participants,NULL,PennController,1,_Header_,Start,1696507661275,pvGN9NXppOqCUMel4AtsfQ,Да,мужской,23,NULL
1696507918,3eca63f46439f16b2259dc08fec39fd5,PennController,3,0,participants,NULL,TextInput,input_age,First,,1696507665199,pvGN9NXppOqCUMel4AtsfQ,Да,мужской,23,2
1696507918,3eca63f46439f16b2259dc08fec39fd5,PennController,3,0,participants,NULL,TextInput,input_age,EnterReturn,23,1696507666904,pvGN9NXppOqCUMel4AtsfQ,Да,мужской,23,NULL
1696507918,3eca63f46439f16b2259dc08fec39fd5,PennController,3,0,participants,NULL,Scale,input_gender,Choice,мужской,1696507668690,pvGN9NXppOqCUMel4AtsfQ,Да,мужской,23,NULL
1696507918,3eca63f46439f16b2259dc08fec39fd5,PennController,3,0,participants,NULL,Scale,input_linguist,Choice,Да,1696507671638,pvGN9NXppOqCUMel4AtsfQ,Да,мужской,23,NULL
1696507918,3eca63f46439f16b2259dc08fec39fd5,PennController,3,0,participants,NULL,PennController,1,_Trial_,End,1696507673029,pvGN9NXppOqCUMel4AtsfQ,Да,мужской,23,NULL
1696507918,3eca63f46439f16b2259dc08fec39fd5,PennController,3,0,participants,NULL,TextInput,input_age,Final,23,1696507673029,pvGN9NXppOqCUMel4AtsfQ,Да,мужской,23,NULL
1696507918,3eca63f46439f16b2259dc08fec39fd5,PennController,4,0,instructions,NULL,PennController,2,_Header_,End,1696507673032,pvGN9NXppOqCUMel4AtsfQ,Да,мужской,23,NULL
1696507918,3eca63f46439f16b2259dc08fec39fd5,PennController,4,0,instructions,NULL,PennController,2,_Header_,Start,1696507673032,pvGN9NXppOqCUMel4AtsfQ,Да,мужской,23,NULL
1696507918,3eca63f46439f16b2259dc08fec39fd5,PennController,4,0,instructions,NULL,PennController,2,_Trial_,Start,1696507673032,pvGN9NXppOqCUMel4AtsfQ,Да,мужской,23,NULL
1696507918,3eca63f46439f16b2259dc08fec39fd5,PennController,4,0,instructions,NULL,PennController,2,_Trial_,End,1696507744998,pvGN9NXppOqCUMel4AtsfQ,Да,мужской,23,NULL
1696507918,3eca63f46439f16b2259dc08fec39fd5,PennController,5,0,exercise,NULL,PennController,5,_Header_,End,1696507745001,pvGN9NXppOqCUMel4AtsfQ,Да,мужской,23,NULL
1696507918,3eca63f46439f16b2259dc08fec39fd5,PennController,5,0,exercise,NULL,PennController,5,_Header_,Start,1696507745001,pvGN9NXppOqCUMel4AtsfQ,Да,мужской,23,NULL
1696507918,3eca63f46439f16b2259dc08fec39fd5,PennController,5,0,exercise,NULL,PennController,5,_Trial_,Start,1696507745001,pvGN9NXppOqCUMel4AtsfQ,Да,мужской,23,NULL
1696507918,3eca63f46439f16b2259dc08fec39fd5,PennController,5,0,exercise,NULL,Scale,Scale,Choice,7,1696507750359,pvGN9NXppOqCUMel4AtsfQ,Да,мужской,23,NULL
1696507918,3eca63f46439f16b2259dc08fec39fd5,PennController,5,0,exercise,NULL,PennController,5,_Trial_,End,1696507750672,pvGN9NXppOqCUMel4AtsfQ,Да,мужской,23,NULL
1696507918,3eca63f46439f16b2259dc08fec39fd5,PennController,6,0,exercise,NULL,PennController,6,_Header_,End,1696507750675,pvGN9NXppOqCUMel4AtsfQ,Да,мужской,23,NULL
1696507918,3eca63f46439f16b2259dc08fec39fd5,PennController,6,0,exercise,NULL,PennController,6,_Header_,Start,1696507750675,pvGN9NXppOqCUMel4AtsfQ,Да,мужской,23,NULL
1696507918,3eca63f46439f16b2259dc08fec39fd5,PennController,6,0,exercise,NULL,PennController,6,_Trial_,Start,1696507750675,pvGN9NXppOqCUMel4AtsfQ,Да,мужской,23,NULL
1696507918,3eca63f46439f16b2259dc08fec39fd5,PennController,6,0,exercise,NULL,Scale,Scale,Choice,7,1696507755396,pvGN9NXppOqCUMel4AtsfQ,Да,мужской,23,NULL
1696507918,3eca63f46439f16b2259dc08fec39fd5,PennController,6,0,exercise,NULL,PennController,6,_Trial_,End,1696507755706,pvGN9NXppOqCUMel4AtsfQ,Да,мужской,23,NULL
1696507918,3eca63f46439f16b2259dc08fec39fd5,PennController,7,0,exercise,NULL,PennController,7,_Header_,End,1696507755708,pvGN9NXppOqCUMel4AtsfQ,Да,мужской,23,NULL
1696507918,3eca63f46439f16b2259dc08fec39fd5,PennController,7,0,exercise,NULL,PennController,7,_Header_,Start,1696507755708,pvGN9NXppOqCUMel4AtsfQ,Да,мужской,23,NULL
1696507918,3eca63f46439f16b2259dc08fec39fd5,PennController,7,0,exercise,NULL,PennController,7,_Trial_,Start,1696507755708,pvGN9NXppOqCUMel4AtsfQ,Да,мужской,23,NULL
1696507918,3eca63f46439f16b2259dc08fec39fd5,PennController,7,0,exercise,NULL,Scale,Scale,Choice,7,1696507762610,pvGN9NXppOqCUMel4AtsfQ,Да,мужской,23,NULL
1696507918,3eca63f46439f16b2259dc08fec39fd5,PennController,7,0,exercise,NULL,PennController,7,_Trial_,End,1696507762920,pvGN9NXppOqCUMel4AtsfQ,Да,мужской,23,NULL
1696507918,3eca63f46439f16b2259dc08fec39fd5,PennController,8,0,start_experiment,NULL,PennController,3,_Header_,Start,1696507762922,pvGN9NXppOqCUMel4AtsfQ,Да,мужской,23,NULL
1696507918,3eca63f46439f16b2259dc08fec39fd5,PennController,8,0,start_experiment,NULL,PennController,3,_Trial_,Start,1696507762922,pvGN9NXppOqCUMel4AtsfQ,Да,мужской,23,NULL
1696507918,3eca63f46439f16b2259dc08fec39fd5,PennController,8,0,start_experiment,NULL,PennController,3,_Header_,End,1696507762923,pvGN9NXppOqCUMel4AtsfQ,Да,мужской,23,NULL
1696507918,3eca63f46439f16b2259dc08fec39fd5,PennController,8,0,start_experiment,NULL,PennController,3,_Trial_,End,1696507766555,pvGN9NXppOqCUMel4AtsfQ,Да,мужской,23,NULL
# 17. ITEM.
# 18. CONDITION.
# 19. TENSE.
# 20. TYPE.
# 21. FILLER_TYPE.
# 22. Comments.
1696507918,3eca63f46439f16b2259dc08fec39fd5,PennController,19,0,experiment-filler,NULL,PennController,18,_Header_,End,1696507766558,pvGN9NXppOqCUMel4AtsfQ,Да,мужской,23,filler-bad-3,,,filler,bad,NULL
1696507918,3eca63f46439f16b2259dc08fec39fd5,PennController,19,0,experiment-filler,NULL,PennController,18,_Header_,Start,1696507766558,pvGN9NXppOqCUMel4AtsfQ,Да,мужской,23,filler-bad-3,,,filler,bad,NULL
1696507918,3eca63f46439f16b2259dc08fec39fd5,PennController,19,0,experiment-filler,NULL,PennController,18,_Trial_,Start,1696507766558,pvGN9NXppOqCUMel4AtsfQ,Да,мужской,23,filler-bad-3,,,filler,bad,NULL
1696507918,3eca63f46439f16b2259dc08fec39fd5,PennController,19,0,experiment-filler,NULL,Scale,Scale,Choice,1,1696507782556,pvGN9NXppOqCUMel4AtsfQ,Да,мужской,23,filler-bad-3,,,filler,bad,NULL
1696507918,3eca63f46439f16b2259dc08fec39fd5,PennController,19,0,experiment-filler,NULL,PennController,18,_Trial_,End,1696507782864,pvGN9NXppOqCUMel4AtsfQ,Да,мужской,23,filler-bad-3,,,filler,bad,NULL
1696507918,3eca63f46439f16b2259dc08fec39fd5,PennController,13,0,experiment-item,NULL,PennController,12,_Header_,Start,1696507782866,pvGN9NXppOqCUMel4AtsfQ,Да,мужской,23,poss-PST-5,poss,PST,item,,NULL
1696507918,3eca63f46439f16b2259dc08fec39fd5,PennController,13,0,experiment-item,NULL,PennController,12,_Trial_,Start,1696507782866,pvGN9NXppOqCUMel4AtsfQ,Да,мужской,23,poss-PST-5,poss,PST,item,,NULL
1696507918,3eca63f46439f16b2259dc08fec39fd5,PennController,13,0,experiment-item,NULL,PennController,12,_Header_,End,1696507782867,pvGN9NXppOqCUMel4AtsfQ,Да,мужской,23,poss-PST-5,poss,PST,item,,NULL
1696507918,3eca63f46439f16b2259dc08fec39fd5,PennController,13,0,experiment-item,NULL,Scale,Scale,Choice,1,1696507800517,pvGN9NXppOqCUMel4AtsfQ,Да,мужской,23,poss-PST-5,poss,PST,item,,NULL
1696507918,3eca63f46439f16b2259dc08fec39fd5,PennController,13,0,experiment-item,NULL,PennController,12,_Trial_,End,1696507800825,pvGN9NXppOqCUMel4AtsfQ,Да,мужской,23,poss-PST-5,poss,PST,item,,NULL
1696507918,3eca63f46439f16b2259dc08fec39fd5,PennController,24,0,experiment-filler,NULL,PennController,23,_Header_,Start,1696507800829,pvGN9NXppOqCUMel4AtsfQ,Да,мужской,23,filler-good-8,,,filler,good,NULL
1696507918,3eca63f46439f16b2259dc08fec39fd5,PennController,24,0,experiment-filler,NULL,PennController,23,_Trial_,Start,1696507800829,pvGN9NXppOqCUMel4AtsfQ,Да,мужской,23,filler-good-8,,,filler,good,NULL
1696507918,3eca63f46439f16b2259dc08fec39fd5,PennController,24,0,experiment-filler,NULL,PennController,23,_Header_,End,1696507800830,pvGN9NXppOqCUMel4AtsfQ,Да,мужской,23,filler-good-8,,,filler,good,NULL
1696507918,3eca63f46439f16b2259dc08fec39fd5,PennController,24,0,experiment-filler,NULL,Scale,Scale,Choice,2,1696507807093,pvGN9NXppOqCUMel4AtsfQ,Да,мужской,23,filler-good-8,,,filler,good,NULL
